subject	run	trial	texture	category	image	trialOnset	itiOnset	trialEnd	triggerDate	triggerTimeStamp	Onsets	responseKey	responseTime	accuracy
108	11	1	17	bathroom	sun_acegryoqftbzowsg.tif	27636.546888	27636.805660	27638.790825	27-Mar-2025 17:24:41	27632.524891	4.021997	none	NaN	NaN
108	11	2	12	bathroom	sun_aapitsgbtktqubfy.tif	27638.797275	27639.055200	27641.041210	27-Mar-2025 17:24:41	27632.524891	6.272384	none	NaN	NaN
108	11	3	27	bathroom	sun_ahcvzmoyaycdoftf.tif	27641.046866	27641.305621	27643.291430	27-Mar-2025 17:24:41	27632.524891	8.521975	none	NaN	NaN
108	11	4	39	bathroom	sun_anryaplzeujmzfkd.tif	27643.297207	27643.555595	27645.541080	27-Mar-2025 17:24:41	27632.524891	10.772316	none	NaN	NaN
108	11	5	51	bathroom	sun_atstyziqcmkahyxk.tif	27645.555684	27645.813542	27647.799572	27-Mar-2025 17:24:41	27632.524891	13.030792	none	NaN	NaN
108	11	6	53	bathroom	sun_ausgutylgojavyoq.tif	27647.805165	27648.063890	27650.049054	27-Mar-2025 17:24:41	27632.524891	15.280274	none	NaN	NaN
108	11	7	55	bathroom	sun_avhrdrntsqrjzccq.tif	27650.055527	27650.313871	27652.299901	27-Mar-2025 17:24:41	27632.524891	17.530635	none	NaN	NaN
108	11	8	36	bathroom	sun_ambriybtogmepttm.tif	27652.305642	27652.564001	27654.549430	27-Mar-2025 17:24:41	27632.524891	19.780751	none	NaN	NaN
108	11	9	22	bathroom	sun_agguqiubmwhqqunb.tif	27654.555075	27654.813462	27656.798986	27-Mar-2025 17:24:41	27632.524891	22.030184	none	NaN	NaN
108	11	10	35	bathroom	sun_alotolagknyrgtsk.tif	27656.813819	27657.071783	27659.057633	27-Mar-2025 17:24:41	27632.524891	24.288927	6	27660.141367	1.000000
108	11	11	28	bathroom	sun_ahijqszoswveeyji.tif	27666.088349	27666.346691	27668.332776	27-Mar-2025 17:24:41	27632.524891	33.563458	5	27669.208611	1.000000
108	11	12	30	bathroom	sun_ajlawzvmubibwbpy.tif	27675.363387	27675.621621	27677.607605	27-Mar-2025 17:24:41	27632.524891	42.838496	none	NaN	NaN
108	11	13	25	bathroom	sun_agyqfjcfkdcydepw.tif	27677.613203	27677.871613	27679.856988	27-Mar-2025 17:24:41	27632.524891	45.088312	none	NaN	NaN
108	11	14	11	bathroom	labelme_sfxiulhjbhlyiyt.tif	27679.863215	27680.121578	27682.107132	27-Mar-2025 17:24:41	27632.524891	47.338324	none	NaN	NaN
108	11	15	49	bathroom	sun_asfwthctfqerjvxr.tif	27682.113183	27682.371557	27684.357450	27-Mar-2025 17:24:41	27632.524891	49.588292	none	NaN	NaN
108	11	16	56	bathroom	sun_awnqiikzaispgmwo.tif	27684.363171	27684.621539	27686.607344	27-Mar-2025 17:24:41	27632.524891	51.838279	5	27687.659254	1.000000
108	11	17	29	bathroom	sun_ahqjwnzgolcaoidx.tif	27693.629792	27693.888140	27695.874288	27-Mar-2025 17:24:41	27632.524891	61.104900	none	NaN	NaN
108	11	18	34	bathroom	sun_alkosphxlxwjwgjd.tif	27695.879737	27696.138494	27698.124537	27-Mar-2025 17:24:41	27632.524891	63.354845	none	NaN	NaN
108	11	19	54	bathroom	sun_auzqhkafidnkrwmo.tif	27698.130136	27698.388041	27700.374225	27-Mar-2025 17:24:41	27632.524891	65.605245	none	NaN	NaN
108	11	20	48	bathroom	sun_aqrpegblszgcoujh.tif	27700.379700	27700.638457	27702.623533	27-Mar-2025 17:24:41	27632.524891	67.854809	none	NaN	NaN
108	11	21	33	bathroom	sun_aljolscmmzydegqp.tif	27702.638026	27702.896766	27704.882000	27-Mar-2025 17:24:41	27632.524891	70.113134	none	NaN	NaN
108	11	22	52	bathroom	sun_aunuadmjocsddsrl.tif	27704.888332	27705.146736	27707.132249	27-Mar-2025 17:24:41	27632.524891	72.363440	none	NaN	NaN
108	11	23	41	bathroom	sun_aoybiabnpadelefl.tif	27707.138357	27707.396331	27709.382938	27-Mar-2025 17:24:41	27632.524891	74.613466	none	NaN	NaN
108	11	24	15	bathroom	sun_abjtwfukuwddzted.tif	27709.396303	27709.655047	27711.640200	27-Mar-2025 17:24:41	27632.524891	76.871411	none	NaN	NaN
108	11	25	13	bathroom	sun_aavhrsfjbserjtht.tif	27711.646673	27711.905037	27713.891155	27-Mar-2025 17:24:41	27632.524891	79.121782	none	NaN	NaN
108	11	26	40	bathroom	sun_aofnryafpsjimzsb.tif	27713.896226	27714.155260	27716.140057	27-Mar-2025 17:24:41	27632.524891	81.371334	none	NaN	NaN
108	11	27	16	bathroom	sun_acduarbnmmoglmiv.tif	27716.146639	27716.404985	27718.390664	27-Mar-2025 17:24:41	27632.524891	83.621748	5	27719.720642	0.000000
108	11	28	18	bathroom	sun_acgyywnybuveqsro.tif	27725.421142	27725.679539	27727.665049	27-Mar-2025 17:24:41	27632.524891	92.896251	none	NaN	NaN
108	11	29	45	bathroom	sun_apkxzenqapsujocq.tif	27727.671150	27727.929522	27729.915142	27-Mar-2025 17:24:41	27632.524891	95.146259	6	27730.606741	1.000000
108	11	30	60	bathroom	sun_azqyogdvyhahyram.tif	27736.946091	27737.204430	27739.190303	27-Mar-2025 17:24:41	27632.524891	104.421200	none	NaN	NaN
108	11	31	38	bathroom	sun_anhioqovhscjqqwb.tif	27739.196085	27739.454519	27741.439957	27-Mar-2025 17:24:41	27632.524891	106.671194	none	NaN	NaN
108	11	32	44	bathroom	sun_apkruvsevgegsdwp.tif	27741.446037	27741.704392	27743.690572	27-Mar-2025 17:24:41	27632.524891	108.921146	none	NaN	NaN
108	11	33	26	bathroom	sun_ahaulkltgpkeeemi.tif	27743.704361	27743.962705	27745.948293	27-Mar-2025 17:24:41	27632.524891	111.179469	5	27746.984210	1.000000
108	11	34	37	bathroom	sun_amzlamotzwfkwjco.tif	27752.971444	27753.229294	27755.215392	27-Mar-2025 17:24:41	27632.524891	120.446552	none	NaN	NaN
108	11	35	43	bathroom	sun_apjevzvycyhuqghb.tif	27755.220893	27755.479761	27757.465039	27-Mar-2025 17:24:41	27632.524891	122.696002	none	NaN	NaN
108	11	36	14	bathroom	sun_abapwbhyhkfixyex.tif	27757.470930	27757.729636	27759.714921	27-Mar-2025 17:24:41	27632.524891	124.946039	none	NaN	NaN
108	11	37	21	bathroom	sun_aggnnqpdorgxpvce.tif	27759.720872	27759.979705	27761.965383	27-Mar-2025 17:24:41	27632.524891	127.195981	none	NaN	NaN
108	11	38	31	bathroom	sun_akiytfaagpdsphgz.tif	27761.979640	27762.237564	27764.224149	27-Mar-2025 17:24:41	27632.524891	129.454748	none	NaN	NaN
108	11	39	57	bathroom	sun_axldvoqbuvuggfmq.tif	27764.238037	27764.496347	27766.482460	27-Mar-2025 17:24:41	27632.524891	131.713145	none	NaN	NaN
108	11	40	59	bathroom	sun_axyrejkiiaqiurjk.tif	27766.487888	27766.745867	27768.732150	27-Mar-2025 17:24:41	27632.524891	133.962996	none	NaN	NaN
108	11	41	50	bathroom	sun_aspsyogrekjtfozg.tif	27768.737820	27768.996299	27770.981934	27-Mar-2025 17:24:41	27632.524891	136.212929	none	NaN	NaN
108	11	42	32	bathroom	sun_aleqenyvunhactkl.tif	27770.995829	27771.254161	27773.239644	27-Mar-2025 17:24:41	27632.524891	138.470938	none	NaN	NaN
108	11	43	42	bathroom	sun_apeeialkgkuxddgh.tif	27773.245736	27773.504602	27775.489519	27-Mar-2025 17:24:41	27632.524891	140.720844	5	27776.298167	1.000000
108	11	44	20	bathroom	sun_afcoljnjfoxjtgja.tif	27782.512377	27782.770719	27784.756517	27-Mar-2025 17:24:41	27632.524891	149.987485	none	NaN	NaN
108	11	45	24	bathroom	sun_agrwbmhcpmfuwmsg.tif	27784.762356	27785.020706	27787.006856	27-Mar-2025 17:24:41	27632.524891	152.237465	6	27788.034617	1.000000
108	11	46	23	bathroom	sun_aghyqhbptboemmoq.tif	27794.029050	27794.287287	27796.273054	27-Mar-2025 17:24:41	27632.524891	161.504158	6	27797.446149	1.000000
108	11	47	58	bathroom	sun_axxbkopsgyouuebh.tif	27803.295538	27803.553874	27805.539600	27-Mar-2025 17:24:41	27632.524891	170.770647	none	NaN	NaN
108	11	48	19	bathroom	sun_aclfzgynxzxlbepz.tif	27805.545497	27805.803848	27807.789465	27-Mar-2025 17:24:41	27632.524891	173.020606	none	NaN	NaN
108	11	49	46	bathroom	sun_apmqjbnwghzuhhzh.tif	27807.803835	27808.062163	27810.047701	27-Mar-2025 17:24:41	27632.524891	175.278944	none	NaN	NaN
108	11	50	47	bathroom	sun_apynckhmoftszqoq.tif	27810.054305	27810.312168	27812.298077	27-Mar-2025 17:24:41	27632.524891	177.529414	none	NaN	NaN
108	11	51	39	bathroom	sun_anryaplzeujmzfkd.tif	27812.303750	27812.562506	27814.548169	27-Mar-2025 17:24:41	27632.524891	179.778859	none	NaN	NaN
108	11	52	17	bathroom	sun_acegryoqftbzowsg.tif	27814.554063	27814.812493	27816.798364	27-Mar-2025 17:24:41	27632.524891	182.029172	none	NaN	NaN
108	11	53	16	bathroom	sun_acduarbnmmoglmiv.tif	27816.812099	27817.070810	27819.056455	27-Mar-2025 17:24:41	27632.524891	184.287208	6	27820.500094	1.000000
108	11	54	38	bathroom	sun_anhioqovhscjqqwb.tif	27826.078639	27826.337513	27828.322665	27-Mar-2025 17:24:41	27632.524891	193.553748	6	27829.171680	0.000000
108	11	55	13	bathroom	sun_aavhrsfjbserjtht.tif	27835.353488	27835.612410	27837.597734	27-Mar-2025 17:24:41	27632.524891	202.828596	none	NaN	NaN
108	11	56	46	bathroom	sun_apmqjbnwghzuhhzh.tif	27837.611918	27837.870677	27839.856368	27-Mar-2025 17:24:41	27632.524891	205.087027	none	NaN	NaN
108	11	57	53	bathroom	sun_ausgutylgojavyoq.tif	27839.870712	27840.128557	27842.115270	27-Mar-2025 17:24:41	27632.524891	207.345821	none	NaN	NaN
108	11	58	19	bathroom	sun_aclfzgynxzxlbepz.tif	27842.128545	27842.386881	27844.372965	27-Mar-2025 17:24:41	27632.524891	209.603654	none	NaN	NaN
108	11	59	57	bathroom	sun_axldvoqbuvuggfmq.tif	27844.378487	27844.636864	27846.622294	27-Mar-2025 17:24:41	27632.524891	211.853596	none	NaN	NaN
108	11	60	31	bathroom	sun_akiytfaagpdsphgz.tif	27846.628485	27846.886839	27848.872473	27-Mar-2025 17:24:41	27632.524891	214.103594	none	NaN	NaN
108	11	61	55	bathroom	sun_avhrdrntsqrjzccq.tif	27848.878436	27849.136822	27851.122342	27-Mar-2025 17:24:41	27632.524891	216.353544	none	NaN	NaN
108	11	62	34	bathroom	sun_alkosphxlxwjwgjd.tif	27851.128465	27851.386809	27853.372486	27-Mar-2025 17:24:41	27632.524891	218.603574	6	27854.316334	1.000000
108	11	63	24	bathroom	sun_agrwbmhcpmfuwmsg.tif	27860.403397	27860.661740	27862.647913	27-Mar-2025 17:24:41	27632.524891	227.878505	none	NaN	NaN
108	11	64	12	bathroom	sun_aapitsgbtktqubfy.tif	27862.653314	27862.911699	27864.897741	27-Mar-2025 17:24:41	27632.524891	230.128422	none	NaN	NaN
108	11	65	36	bathroom	sun_ambriybtogmepttm.tif	27864.903315	27865.161700	27867.147792	27-Mar-2025 17:24:41	27632.524891	232.378424	none	NaN	NaN
108	11	66	45	bathroom	sun_apkxzenqapsujocq.tif	27867.153334	27867.411666	27869.397691	27-Mar-2025 17:24:41	27632.524891	234.628442	none	NaN	NaN
108	11	67	23	bathroom	sun_aghyqhbptboemmoq.tif	27869.403279	27869.661649	27871.647854	27-Mar-2025 17:24:41	27632.524891	236.878388	none	NaN	NaN
108	11	68	44	bathroom	sun_apkruvsevgegsdwp.tif	27871.653260	27871.912110	27873.897248	27-Mar-2025 17:24:41	27632.524891	239.128369	none	NaN	NaN
108	11	69	14	bathroom	sun_abapwbhyhkfixyex.tif	27873.903658	27874.161629	27876.147970	27-Mar-2025 17:24:41	27632.524891	241.378767	none	NaN	NaN
108	11	70	56	bathroom	sun_awnqiikzaispgmwo.tif	27876.162202	27876.420412	27878.406253	27-Mar-2025 17:24:41	27632.524891	243.637311	none	NaN	NaN
108	11	71	41	bathroom	sun_aoybiabnpadelefl.tif	27878.420300	27878.678734	27880.664903	27-Mar-2025 17:24:41	27632.524891	245.895409	none	NaN	NaN
108	11	72	37	bathroom	sun_amzlamotzwfkwjco.tif	27880.670270	27880.928605	27882.914776	27-Mar-2025 17:24:41	27632.524891	248.145379	6	27883.839818	0.000000
108	11	73	58	bathroom	sun_axxbkopsgyouuebh.tif	27889.944729	27890.203635	27892.188795	27-Mar-2025 17:24:41	27632.524891	257.419837	none	NaN	NaN
108	11	74	60	bathroom	sun_azqyogdvyhahyram.tif	27892.195203	27892.453148	27894.439546	27-Mar-2025 17:24:41	27632.524891	259.670312	none	NaN	NaN
108	11	75	35	bathroom	sun_alotolagknyrgtsk.tif	27894.453513	27894.711872	27896.697594	27-Mar-2025 17:24:41	27632.524891	261.928622	none	NaN	NaN
108	11	76	11	bathroom	labelme_sfxiulhjbhlyiyt.tif	27896.711382	27896.970147	27898.955806	27-Mar-2025 17:24:41	27632.524891	264.186490	none	NaN	NaN
108	11	77	42	bathroom	sun_apeeialkgkuxddgh.tif	27898.961391	27899.220119	27901.205352	27-Mar-2025 17:24:41	27632.524891	266.436499	none	NaN	NaN
108	11	78	29	bathroom	sun_ahqjwnzgolcaoidx.tif	27901.211362	27901.469714	27903.455362	27-Mar-2025 17:24:41	27632.524891	268.686471	6	27906.128358	1.000000
108	11	79	51	bathroom	sun_atstyziqcmkahyxk.tif	27910.477941	27910.736302	27912.721869	27-Mar-2025 17:24:41	27632.524891	277.953050	none	NaN	NaN
108	11	80	27	bathroom	sun_ahcvzmoyaycdoftf.tif	27912.727913	27912.986292	27914.972347	27-Mar-2025 17:24:41	27632.524891	280.203022	none	NaN	NaN
108	11	81	59	bathroom	sun_axyrejkiiaqiurjk.tif	27914.977926	27915.236273	27917.222408	27-Mar-2025 17:24:41	27632.524891	282.453035	none	NaN	NaN
108	11	82	52	bathroom	sun_aunuadmjocsddsrl.tif	27917.227852	27917.486255	27919.471618	27-Mar-2025 17:24:41	27632.524891	284.702961	none	NaN	NaN
108	11	83	20	bathroom	sun_afcoljnjfoxjtgja.tif	27919.477895	27919.736228	27921.722477	27-Mar-2025 17:24:41	27632.524891	286.953004	none	NaN	NaN
108	11	84	15	bathroom	sun_abjtwfukuwddzted.tif	27921.727832	27921.986216	27923.972419	27-Mar-2025 17:24:41	27632.524891	289.202941	none	NaN	NaN
108	11	85	49	bathroom	sun_asfwthctfqerjvxr.tif	27923.977854	27924.236199	27926.222290	27-Mar-2025 17:24:41	27632.524891	291.452963	none	NaN	NaN
108	11	86	21	bathroom	sun_aggnnqpdorgxpvce.tif	27926.227819	27926.486174	27928.472280	27-Mar-2025 17:24:41	27632.524891	293.702928	none	NaN	NaN
108	11	87	32	bathroom	sun_aleqenyvunhactkl.tif	27928.477815	27928.736156	27930.721905	27-Mar-2025 17:24:41	27632.524891	295.952924	none	NaN	NaN
108	11	88	43	bathroom	sun_apjevzvycyhuqghb.tif	27930.736608	27930.994935	27932.980734	27-Mar-2025 17:24:41	27632.524891	298.211717	none	NaN	NaN
108	11	89	40	bathroom	sun_aofnryafpsjimzsb.tif	27932.986417	27933.244929	27935.230918	27-Mar-2025 17:24:41	27632.524891	300.461526	none	NaN	NaN
108	11	90	26	bathroom	sun_ahaulkltgpkeeemi.tif	27935.244444	27935.503219	27937.488557	27-Mar-2025 17:24:41	27632.524891	302.719553	none	NaN	NaN
108	11	91	54	bathroom	sun_auzqhkafidnkrwmo.tif	27937.494412	27937.753126	27939.738925	27-Mar-2025 17:24:41	27632.524891	304.969521	none	NaN	NaN
108	11	92	18	bathroom	sun_acgyywnybuveqsro.tif	27939.744689	27940.002739	27941.988514	27-Mar-2025 17:24:41	27632.524891	307.219798	none	NaN	NaN
108	11	93	47	bathroom	sun_apynckhmoftszqoq.tif	27941.994742	27942.253253	27944.239243	27-Mar-2025 17:24:41	27632.524891	309.469851	none	NaN	NaN
108	11	94	25	bathroom	sun_agyqfjcfkdcydepw.tif	27944.252996	27944.511400	27946.497563	27-Mar-2025 17:24:41	27632.524891	311.728105	none	NaN	NaN
108	11	95	28	bathroom	sun_ahijqszoswveeyji.tif	27946.510998	27946.769742	27948.755156	27-Mar-2025 17:24:41	27632.524891	313.986107	none	NaN	NaN
108	11	96	48	bathroom	sun_aqrpegblszgcoujh.tif	27948.761434	27949.019332	27951.005598	27-Mar-2025 17:24:41	27632.524891	316.236543	none	NaN	NaN
108	11	97	50	bathroom	sun_aspsyogrekjtfozg.tif	27951.019302	27951.278113	27953.263118	27-Mar-2025 17:24:41	27632.524891	318.494411	5	27954.516588	1.000000
108	11	98	22	bathroom	sun_agguqiubmwhqqunb.tif	27960.294225	27960.552551	27962.538537	27-Mar-2025 17:24:41	27632.524891	327.769334	none	NaN	NaN
108	11	99	33	bathroom	sun_aljolscmmzydegqp.tif	27962.552532	27962.810865	27964.796610	27-Mar-2025 17:24:41	27632.524891	330.027641	none	NaN	NaN
108	11	100	30	bathroom	sun_ajlawzvmubibwbpy.tif	27964.802519	27965.060843	27967.047139	27-Mar-2025 17:24:41	27632.524891	332.277628	none	NaN	NaN
