subject	run	trial	texture	category	image	trialOnset	itiOnset	trialEnd	triggerDate	triggerTimeStamp	Onsets	responseKey	responseTime	accuracy
123	6	1	14	kitchen	sun_aadbddgrdsjugojn.tif	10051.063555	10051.321524	10053.308097	19-May-2025 15:05:34	10047.050793	4.012762	none	NaN	NaN
123	6	2	31	kitchen	sun_aehawpgmrlhlvcow.tif	10053.321495	10053.580204	10055.565748	19-May-2025 15:05:34	10047.050793	6.270702	6	10057.854658	0.000000
123	6	3	58	kitchen	sun_aymvwlarqodbwuoc.tif	10062.596409	10062.855137	10064.840856	19-May-2025 15:05:34	10047.050793	15.545617	none	NaN	NaN
123	6	4	15	kitchen	sun_aamedkxepzlwuxes.tif	10064.846693	10065.105110	10067.090880	19-May-2025 15:05:34	10047.050793	17.795900	none	NaN	NaN
123	6	5	37	kitchen	sun_agorklincwxrdtga.tif	10067.105096	10067.363419	10069.349621	19-May-2025 15:05:34	10047.050793	20.054303	none	NaN	NaN
123	6	6	40	kitchen	sun_ahdycvpopffkzzsu.tif	10069.363022	10069.621729	10071.606960	19-May-2025 15:05:34	10047.050793	22.312230	none	NaN	NaN
123	6	7	49	kitchen	sun_akcjzhbbjlbogpdi.tif	10071.613288	10071.871346	10073.857527	19-May-2025 15:05:34	10047.050793	24.562495	6	10075.981646	1.000000
123	6	8	43	kitchen	sun_ahspylgoovwmwvgk.tif	10080.888019	10081.146172	10083.132597	19-May-2025 15:05:34	10047.050793	33.837227	none	NaN	NaN
123	6	9	12	kitchen	labelme_kxvouciolcpqplr.tif	10083.137834	10083.396230	10085.382050	19-May-2025 15:05:34	10047.050793	36.087042	none	NaN	NaN
123	6	10	19	kitchen	sun_abdenxonkemggwsq.tif	10085.387851	10085.646230	10087.631706	19-May-2025 15:05:34	10047.050793	38.337059	none	NaN	NaN
123	6	11	48	kitchen	sun_akchetnepxlcxhsu.tif	10087.637845	10087.896190	10089.882030	19-May-2025 15:05:34	10047.050793	40.587053	6	10091.208001	1.000000
123	6	12	56	kitchen	sun_awcpdzzznmweyyhv.tif	10096.896114	10097.154453	10099.140159	19-May-2025 15:05:34	10047.050793	49.845321	none	NaN	NaN
123	6	13	59	kitchen	sun_aypmqwcualkenuoe.tif	10099.146095	10099.404447	10101.390501	19-May-2025 15:05:34	10047.050793	52.095302	none	NaN	NaN
123	6	14	50	kitchen	sun_amjjdeyrggfqgmom.tif	10101.396034	10101.654414	10103.640409	19-May-2025 15:05:34	10047.050793	54.345242	none	NaN	NaN
123	6	15	39	kitchen	sun_agzzivivdpnawacl.tif	10103.654406	10103.912732	10105.898424	19-May-2025 15:05:34	10047.050793	56.603614	none	NaN	NaN
123	6	16	53	kitchen	sun_aunzlwrbjumxhwdj.tif	10105.904369	10106.162705	10108.148375	19-May-2025 15:05:34	10047.050793	58.853576	none	NaN	NaN
123	6	17	28	kitchen	sun_adgqasybjyktddhj.tif	10108.154327	10108.412683	10110.398239	19-May-2025 15:05:34	10047.050793	61.103535	5	10113.797126	0.000000
123	6	18	18	kitchen	sun_aaxxjlsuzvqlgylf.tif	10117.420912	10117.679665	10119.665064	19-May-2025 15:05:34	10047.050793	70.370119	none	NaN	NaN
123	6	19	21	kitchen	sun_abftihopvusyfakt.tif	10119.671019	10119.929722	10121.915091	19-May-2025 15:05:34	10047.050793	72.620227	none	NaN	NaN
123	6	20	55	kitchen	sun_avszsnwsbuqfgzbn.tif	10121.929243	10122.187573	10124.173614	19-May-2025 15:05:34	10047.050793	74.878451	5	10126.300091	1.000000
123	6	21	23	kitchen	sun_abrcnpqqhmjwekyf.tif	10131.204156	10131.462486	10133.447931	19-May-2025 15:05:34	10047.050793	84.153363	none	NaN	NaN
123	6	22	17	kitchen	sun_aarfiyshqohlwkmo.tif	10133.454596	10133.712900	10135.698736	19-May-2025 15:05:34	10047.050793	86.403803	none	NaN	NaN
123	6	23	36	kitchen	sun_aggjlwcdjsjcaemh.tif	10135.704416	10135.962925	10137.948298	19-May-2025 15:05:34	10047.050793	88.653624	none	NaN	NaN
123	6	24	24	kitchen	sun_acfmftudsenhrfhy.tif	10137.954057	10138.212907	10140.198481	19-May-2025 15:05:34	10047.050793	90.903264	none	NaN	NaN
123	6	25	16	kitchen	sun_aapllqyqlykszopd.tif	10140.204043	10140.462408	10142.448502	19-May-2025 15:05:34	10047.050793	93.153250	none	NaN	NaN
123	6	26	45	kitchen	sun_aixorpehvfykdynp.tif	10142.462391	10142.720740	10144.706975	19-May-2025 15:05:34	10047.050793	95.411599	none	NaN	NaN
123	6	27	20	kitchen	sun_abdxkyyxwfskuaqb.tif	10144.720708	10144.979040	10146.964616	19-May-2025 15:05:34	10047.050793	97.669915	none	NaN	NaN
123	6	28	25	kitchen	sun_acgtpgfybqjmzeyw.tif	10146.970688	10147.229016	10149.215043	19-May-2025 15:05:34	10047.050793	99.919895	none	NaN	NaN
123	6	29	44	kitchen	sun_ahywdevtimnqcsln.tif	10149.220663	10149.478999	10151.464485	19-May-2025 15:05:34	10047.050793	102.169870	none	NaN	NaN
123	6	30	35	kitchen	sun_afuyedyxivkhecmu.tif	10151.478981	10151.737314	10153.723342	19-May-2025 15:05:34	10047.050793	104.428188	5	10157.497629	0.000000
123	6	31	57	kitchen	sun_axyyrmzcupyhlivc.tif	10160.745568	10161.003896	10162.989890	19-May-2025 15:05:34	10047.050793	113.694775	none	NaN	NaN
123	6	32	41	kitchen	sun_ahljzhgcdpomplvg.tif	10162.995527	10163.253874	10165.239347	19-May-2025 15:05:34	10047.050793	115.944735	none	NaN	NaN
123	6	33	46	kitchen	sun_ajcbwwvdlsvjyzje.tif	10165.245525	10165.503873	10167.489848	19-May-2025 15:05:34	10047.050793	118.194733	none	NaN	NaN
123	6	34	32	kitchen	sun_aenotlpyftoioydp.tif	10167.495488	10167.753852	10169.739802	19-May-2025 15:05:34	10047.050793	120.444695	none	NaN	NaN
123	6	35	52	kitchen	sun_auaiucuqpdausiva.tif	10169.753828	10170.012147	10171.997606	19-May-2025 15:05:34	10047.050793	122.703036	none	NaN	NaN
123	6	36	22	kitchen	sun_abpwyqmlzafvklqo.tif	10172.012563	10172.270852	10174.256555	19-May-2025 15:05:34	10047.050793	124.961771	none	NaN	NaN
123	6	37	34	kitchen	sun_aexklacwqwezaorf.tif	10174.262489	10174.520933	10176.506287	19-May-2025 15:05:34	10047.050793	127.211697	none	NaN	NaN
123	6	38	51	kitchen	sun_aqeaevwwwjoqhzvl.tif	10176.512088	10176.770806	10178.756161	19-May-2025 15:05:34	10047.050793	129.461295	6	10182.443395	1.000000
123	6	39	60	kitchen	sun_azmutvzbxypaceni.tif	10185.787024	10186.045350	10188.031391	19-May-2025 15:05:34	10047.050793	138.736231	none	NaN	NaN
123	6	40	33	kitchen	sun_aeqdocilnnpuvuhx.tif	10188.036983	10188.295814	10190.281488	19-May-2025 15:05:34	10047.050793	140.986190	6	10191.606468	1.000000
123	6	41	27	kitchen	sun_acxkpeoqbwcxfvip.tif	10197.311928	10197.570732	10199.556174	19-May-2025 15:05:34	10047.050793	150.261136	none	NaN	NaN
123	6	42	13	kitchen	labelme_rykdqxenmhulbdn.tif	10199.562242	10199.820617	10201.806246	19-May-2025 15:05:34	10047.050793	152.511449	5	10203.883029	1.000000
123	6	43	30	kitchen	sun_aegoxogugdkwpmpj.tif	10208.828572	10209.086828	10211.073218	19-May-2025 15:05:34	10047.050793	161.777779	none	NaN	NaN
123	6	44	29	kitchen	sun_admlmbcdswaszruo.tif	10211.078420	10211.336808	10213.322312	19-May-2025 15:05:34	10047.050793	164.027627	none	NaN	NaN
123	6	45	11	kitchen	labelme_brsyyvweiuaazfr.tif	10213.328450	10213.586787	10215.572516	19-May-2025 15:05:34	10047.050793	166.277657	none	NaN	NaN
123	6	46	47	kitchen	sun_ajkqhtgcbgpcwrwn.tif	10215.578423	10215.836767	10217.822279	19-May-2025 15:05:34	10047.050793	168.527630	none	NaN	NaN
123	6	47	38	kitchen	sun_agubuxuukhzyzpdp.tif	10217.828412	10218.086747	10220.072467	19-May-2025 15:05:34	10047.050793	170.777619	none	NaN	NaN
123	6	48	54	kitchen	sun_auticobqsbwgoppi.tif	10220.078369	10220.336728	10222.322356	19-May-2025 15:05:34	10047.050793	173.027577	none	NaN	NaN
123	6	49	26	kitchen	sun_acwjdupvyjsugpay.tif	10222.336709	10222.595036	10224.581221	19-May-2025 15:05:34	10047.050793	175.285917	5	10225.806883	1.000000
123	6	50	42	kitchen	sun_ahpczsiumwwocjkv.tif	10231.611567	10231.870446	10233.855413	19-May-2025 15:05:34	10047.050793	184.560774	none	NaN	NaN
123	6	51	55	kitchen	sun_avszsnwsbuqfgzbn.tif	10233.861599	10234.120374	10236.105381	19-May-2025 15:05:34	10047.050793	186.810806	none	NaN	NaN
123	6	52	42	kitchen	sun_ahpczsiumwwocjkv.tif	10236.111937	10236.369938	10238.356461	19-May-2025 15:05:34	10047.050793	189.061144	none	NaN	NaN
123	6	53	33	kitchen	sun_aeqdocilnnpuvuhx.tif	10238.370280	10238.628714	10240.614541	19-May-2025 15:05:34	10047.050793	191.319488	5	10242.220242	1.000000
123	6	54	44	kitchen	sun_ahywdevtimnqcsln.tif	10247.645296	10247.903632	10249.889258	19-May-2025 15:05:34	10047.050793	200.594503	none	NaN	NaN
123	6	55	51	kitchen	sun_aqeaevwwwjoqhzvl.tif	10249.894758	10250.153569	10252.138636	19-May-2025 15:05:34	10047.050793	202.843965	none	NaN	NaN
123	6	56	31	kitchen	sun_aehawpgmrlhlvcow.tif	10252.144775	10252.403614	10254.388701	19-May-2025 15:05:34	10047.050793	205.093982	none	NaN	NaN
123	6	57	37	kitchen	sun_agorklincwxrdtga.tif	10254.394747	10254.653106	10256.639024	19-May-2025 15:05:34	10047.050793	207.343954	none	NaN	NaN
123	6	58	39	kitchen	sun_agzzivivdpnawacl.tif	10256.644712	10256.903095	10258.888991	19-May-2025 15:05:34	10047.050793	209.593919	none	NaN	NaN
123	6	59	24	kitchen	sun_acfmftudsenhrfhy.tif	10258.903541	10259.161412	10261.148141	19-May-2025 15:05:34	10047.050793	211.852749	none	NaN	NaN
123	6	60	17	kitchen	sun_aarfiyshqohlwkmo.tif	10261.161374	10261.419710	10263.405816	19-May-2025 15:05:34	10047.050793	214.110582	none	NaN	NaN
123	6	61	13	kitchen	labelme_rykdqxenmhulbdn.tif	10263.411349	10263.669689	10265.655753	19-May-2025 15:05:34	10047.050793	216.360556	none	NaN	NaN
123	6	62	34	kitchen	sun_aexklacwqwezaorf.tif	10265.661300	10265.919687	10267.905350	19-May-2025 15:05:34	10047.050793	218.610508	none	NaN	NaN
123	6	63	53	kitchen	sun_aunzlwrbjumxhwdj.tif	10267.911321	10268.169655	10270.155864	19-May-2025 15:05:34	10047.050793	220.860529	6	10271.798870	0.000000
123	6	64	41	kitchen	sun_ahljzhgcdpomplvg.tif	10277.186249	10277.444571	10279.430740	19-May-2025 15:05:34	10047.050793	230.135456	none	NaN	NaN
123	6	65	12	kitchen	labelme_kxvouciolcpqplr.tif	10279.436170	10279.694549	10281.680219	19-May-2025 15:05:34	10047.050793	232.385378	none	NaN	NaN
123	6	66	56	kitchen	sun_awcpdzzznmweyyhv.tif	10281.686203	10281.944527	10283.930429	19-May-2025 15:05:34	10047.050793	234.635410	6	10287.011352	0.000000
123	6	67	18	kitchen	sun_aaxxjlsuzvqlgylf.tif	10290.953133	10291.211128	10293.198336	19-May-2025 15:05:34	10047.050793	243.902340	none	NaN	NaN
123	6	68	15	kitchen	sun_aamedkxepzlwuxes.tif	10293.211577	10293.469909	10295.456052	19-May-2025 15:05:34	10047.050793	246.160784	none	NaN	NaN
123	6	69	46	kitchen	sun_ajcbwwvdlsvjyzje.tif	10295.469423	10295.728131	10297.713911	19-May-2025 15:05:34	10047.050793	248.418630	none	NaN	NaN
123	6	70	60	kitchen	sun_azmutvzbxypaceni.tif	10297.719837	10297.978118	10299.963704	19-May-2025 15:05:34	10047.050793	250.669044	none	NaN	NaN
123	6	71	27	kitchen	sun_acxkpeoqbwcxfvip.tif	10299.969824	10300.227720	10302.214381	19-May-2025 15:05:34	10047.050793	252.919032	none	NaN	NaN
123	6	72	36	kitchen	sun_aggjlwcdjsjcaemh.tif	10302.219648	10302.477697	10304.463556	19-May-2025 15:05:34	10047.050793	255.168855	none	NaN	NaN
123	6	73	14	kitchen	sun_aadbddgrdsjugojn.tif	10304.469268	10304.728026	10306.713846	19-May-2025 15:05:34	10047.050793	257.418475	none	NaN	NaN
123	6	74	26	kitchen	sun_acwjdupvyjsugpay.tif	10306.728044	10306.985973	10308.972332	19-May-2025 15:05:34	10047.050793	259.677251	none	NaN	NaN
123	6	75	54	kitchen	sun_auticobqsbwgoppi.tif	10308.977625	10309.235976	10311.222077	19-May-2025 15:05:34	10047.050793	261.926832	none	NaN	NaN
123	6	76	45	kitchen	sun_aixorpehvfykdynp.tif	10311.227581	10311.486429	10313.471707	19-May-2025 15:05:34	10047.050793	264.176788	none	NaN	NaN
123	6	77	59	kitchen	sun_aypmqwcualkenuoe.tif	10313.477594	10313.736080	10315.721371	19-May-2025 15:05:34	10047.050793	266.426802	none	NaN	NaN
123	6	78	58	kitchen	sun_aymvwlarqodbwuoc.tif	10315.727528	10315.985912	10317.971633	19-May-2025 15:05:34	10047.050793	268.676736	none	NaN	NaN
123	6	79	50	kitchen	sun_amjjdeyrggfqgmom.tif	10317.977562	10318.235905	10320.221759	19-May-2025 15:05:34	10047.050793	270.926770	none	NaN	NaN
123	6	80	49	kitchen	sun_akcjzhbbjlbogpdi.tif	10320.227542	10320.485869	10322.471676	19-May-2025 15:05:34	10047.050793	273.176750	none	NaN	NaN
123	6	81	20	kitchen	sun_abdxkyyxwfskuaqb.tif	10322.477483	10322.735713	10324.721813	19-May-2025 15:05:34	10047.050793	275.426690	none	NaN	NaN
123	6	82	25	kitchen	sun_acgtpgfybqjmzeyw.tif	10324.727454	10324.985831	10326.971628	19-May-2025 15:05:34	10047.050793	277.676661	none	NaN	NaN
123	6	83	40	kitchen	sun_ahdycvpopffkzzsu.tif	10326.977458	10327.235816	10329.221672	19-May-2025 15:05:34	10047.050793	279.926665	none	NaN	NaN
123	6	84	47	kitchen	sun_ajkqhtgcbgpcwrwn.tif	10329.227462	10329.485797	10331.471287	19-May-2025 15:05:34	10047.050793	282.176669	5	10332.865920	0.000000
123	6	85	38	kitchen	sun_agubuxuukhzyzpdp.tif	10338.494042	10338.752388	10340.738376	19-May-2025 15:05:34	10047.050793	291.443249	none	NaN	NaN
123	6	86	30	kitchen	sun_aegoxogugdkwpmpj.tif	10340.743986	10341.002360	10342.988038	19-May-2025 15:05:34	10047.050793	293.693193	none	NaN	NaN
123	6	87	32	kitchen	sun_aenotlpyftoioydp.tif	10342.994011	10343.252346	10345.237957	19-May-2025 15:05:34	10047.050793	295.943218	none	NaN	NaN
123	6	88	52	kitchen	sun_auaiucuqpdausiva.tif	10345.243960	10345.502327	10347.488306	19-May-2025 15:05:34	10047.050793	298.193167	none	NaN	NaN
123	6	89	16	kitchen	sun_aapllqyqlykszopd.tif	10347.493950	10347.752310	10349.738349	19-May-2025 15:05:34	10047.050793	300.443157	none	NaN	NaN
123	6	90	28	kitchen	sun_adgqasybjyktddhj.tif	10349.743953	10350.002280	10351.988474	19-May-2025 15:05:34	10047.050793	302.693160	none	NaN	NaN
123	6	91	11	kitchen	labelme_brsyyvweiuaazfr.tif	10351.994279	10352.252648	10354.238781	19-May-2025 15:05:34	10047.050793	304.943487	none	NaN	NaN
123	6	92	29	kitchen	sun_admlmbcdswaszruo.tif	10354.252244	10354.510582	10356.496583	19-May-2025 15:05:34	10047.050793	307.201452	none	NaN	NaN
123	6	93	23	kitchen	sun_abrcnpqqhmjwekyf.tif	10356.502600	10356.760567	10358.746646	19-May-2025 15:05:34	10047.050793	309.451808	none	NaN	NaN
123	6	94	19	kitchen	sun_abdenxonkemggwsq.tif	10358.752777	10359.010920	10360.996809	19-May-2025 15:05:34	10047.050793	311.701985	none	NaN	NaN
123	6	95	48	kitchen	sun_akchetnepxlcxhsu.tif	10361.002547	10361.260892	10363.246720	19-May-2025 15:05:34	10047.050793	313.951755	none	NaN	NaN
123	6	96	57	kitchen	sun_axyyrmzcupyhlivc.tif	10363.252500	10363.510504	10365.496425	19-May-2025 15:05:34	10047.050793	316.201708	none	NaN	NaN
123	6	97	21	kitchen	sun_abftihopvusyfakt.tif	10365.502020	10365.760860	10367.746089	19-May-2025 15:05:34	10047.050793	318.451228	none	NaN	NaN
123	6	98	35	kitchen	sun_afuyedyxivkhecmu.tif	10367.752129	10368.010846	10369.996292	19-May-2025 15:05:34	10047.050793	320.701336	none	NaN	NaN
123	6	99	43	kitchen	sun_ahspylgoovwmwvgk.tif	10370.002036	10370.260455	10372.246178	19-May-2025 15:05:34	10047.050793	322.951243	none	NaN	NaN
123	6	100	22	kitchen	sun_abpwyqmlzafvklqo.tif	10372.252442	10372.510811	10374.496616	19-May-2025 15:05:34	10047.050793	325.201650	5	10379.229810	1.000000
