subject	run	trial	texture	category	image	trialOnset	itiOnset	trialEnd	triggerDate	triggerTimeStamp	Onsets	responseKey	responseTime	accuracy
105	8	1	16	kitchen	sun_aapllqyqlykszopd.tif	15150.270280	15150.529222	15152.514104	26-Mar-2025 12:13:10	15146.246277	4.024003	none	NaN	NaN
105	8	2	41	kitchen	sun_ahljzhgcdpomplvg.tif	15152.520275	15152.778610	15154.764661	26-Mar-2025 12:13:10	15146.246277	6.273998	none	NaN	NaN
105	8	3	54	kitchen	sun_auticobqsbwgoppi.tif	15154.770253	15155.029057	15157.014842	26-Mar-2025 12:13:10	15146.246277	8.523977	none	NaN	NaN
105	8	4	59	kitchen	sun_aypmqwcualkenuoe.tif	15157.020176	15157.279063	15159.263982	26-Mar-2025 12:13:10	15146.246277	10.773899	none	NaN	NaN
105	8	5	31	kitchen	sun_aehawpgmrlhlvcow.tif	15159.270210	15159.528924	15161.514017	26-Mar-2025 12:13:10	15146.246277	13.023933	none	NaN	NaN
105	8	6	51	kitchen	sun_aqeaevwwwjoqhzvl.tif	15161.520655	15161.778542	15163.764448	26-Mar-2025 12:13:10	15146.246277	15.274378	none	NaN	NaN
105	8	7	35	kitchen	sun_afuyedyxivkhecmu.tif	15163.770601	15164.028985	15166.014551	26-Mar-2025 12:13:10	15146.246277	17.524325	none	NaN	NaN
105	8	8	33	kitchen	sun_aeqdocilnnpuvuhx.tif	15166.020102	15166.278929	15168.264043	26-Mar-2025 12:13:10	15146.246277	19.773826	none	NaN	NaN
105	8	9	30	kitchen	sun_aegoxogugdkwpmpj.tif	15168.270548	15168.528452	15170.514876	26-Mar-2025 12:13:10	15146.246277	22.024271	5	15172.061456	0.000000
105	8	10	36	kitchen	sun_aggjlwcdjsjcaemh.tif	15177.545041	15177.803329	15179.788892	26-Mar-2025 12:13:10	15146.246277	31.298764	none	NaN	NaN
105	8	11	15	kitchen	sun_aamedkxepzlwuxes.tif	15179.795047	15180.053382	15182.039339	26-Mar-2025 12:13:10	15146.246277	33.548770	none	NaN	NaN
105	8	12	48	kitchen	sun_akchetnepxlcxhsu.tif	15182.044989	15182.303378	15184.289597	26-Mar-2025 12:13:10	15146.246277	35.798712	none	NaN	NaN
105	8	13	27	kitchen	sun_acxkpeoqbwcxfvip.tif	15184.294996	15184.553344	15186.539070	26-Mar-2025 12:13:10	15146.246277	38.048719	5	15187.732681	1.000000
105	8	14	46	kitchen	sun_ajcbwwvdlsvjyzje.tif	15193.561616	15193.819941	15195.805879	26-Mar-2025 12:13:10	15146.246277	47.315339	none	NaN	NaN
105	8	15	34	kitchen	sun_aexklacwqwezaorf.tif	15195.811544	15196.069927	15198.056059	26-Mar-2025 12:13:10	15146.246277	49.565268	none	NaN	NaN
105	8	16	29	kitchen	sun_admlmbcdswaszruo.tif	15198.061515	15198.319916	15200.305351	26-Mar-2025 12:13:10	15146.246277	51.815238	none	NaN	NaN
105	8	17	39	kitchen	sun_agzzivivdpnawacl.tif	15200.311520	15200.569882	15202.555850	26-Mar-2025 12:13:10	15146.246277	54.065244	none	NaN	NaN
105	8	18	42	kitchen	sun_ahpczsiumwwocjkv.tif	15202.561482	15202.819866	15204.805662	26-Mar-2025 12:13:10	15146.246277	56.315205	none	NaN	NaN
105	8	19	43	kitchen	sun_ahspylgoovwmwvgk.tif	15204.811519	15205.069852	15207.055983	26-Mar-2025 12:13:10	15146.246277	58.565242	none	NaN	NaN
105	8	20	37	kitchen	sun_agorklincwxrdtga.tif	15207.061847	15207.319835	15209.306274	26-Mar-2025 12:13:10	15146.246277	60.815571	5	15210.226415	0.000000
105	8	21	18	kitchen	sun_aaxxjlsuzvqlgylf.tif	15216.336367	15216.594780	15218.580534	26-Mar-2025 12:13:10	15146.246277	70.090090	none	NaN	NaN
105	8	22	26	kitchen	sun_acwjdupvyjsugpay.tif	15218.586872	15218.844755	15220.830931	26-Mar-2025 12:13:10	15146.246277	72.340595	none	NaN	NaN
105	8	23	17	kitchen	sun_aarfiyshqohlwkmo.tif	15220.836703	15221.094735	15223.080793	26-Mar-2025 12:13:10	15146.246277	74.590427	6	15224.309218	0.000000
105	8	24	47	kitchen	sun_ajkqhtgcbgpcwrwn.tif	15230.111218	15230.370036	15232.355775	26-Mar-2025 12:13:10	15146.246277	83.864942	none	NaN	NaN
105	8	25	60	kitchen	sun_azmutvzbxypaceni.tif	15232.361269	15232.620033	15234.605368	26-Mar-2025 12:13:10	15146.246277	86.114993	none	NaN	NaN
105	8	26	55	kitchen	sun_avszsnwsbuqfgzbn.tif	15234.611258	15234.869993	15236.856180	26-Mar-2025 12:13:10	15146.246277	88.364981	5	15238.266932	1.000000
105	8	27	20	kitchen	sun_abdxkyyxwfskuaqb.tif	15243.886393	15244.144552	15246.130455	26-Mar-2025 12:13:10	15146.246277	97.640116	none	NaN	NaN
105	8	28	19	kitchen	sun_abdenxonkemggwsq.tif	15246.136139	15246.394540	15248.380514	26-Mar-2025 12:13:10	15146.246277	99.889863	none	NaN	NaN
105	8	29	14	kitchen	sun_aadbddgrdsjugojn.tif	15248.386134	15248.644516	15250.630024	26-Mar-2025 12:13:10	15146.246277	102.139857	none	NaN	NaN
105	8	30	22	kitchen	sun_abpwyqmlzafvklqo.tif	15250.636148	15250.894499	15252.880537	26-Mar-2025 12:13:10	15146.246277	104.389872	6	15254.014946	1.000000
105	8	31	21	kitchen	sun_abftihopvusyfakt.tif	15259.911070	15260.169415	15262.155092	26-Mar-2025 12:13:10	15146.246277	113.664794	none	NaN	NaN
105	8	32	58	kitchen	sun_aymvwlarqodbwuoc.tif	15262.161054	15262.419401	15264.405616	26-Mar-2025 12:13:10	15146.246277	115.914778	none	NaN	NaN
105	8	33	52	kitchen	sun_auaiucuqpdausiva.tif	15264.411015	15264.669382	15266.655388	26-Mar-2025 12:13:10	15146.246277	118.164739	none	NaN	NaN
105	8	34	25	kitchen	sun_acgtpgfybqjmzeyw.tif	15266.661006	15266.919368	15268.905212	26-Mar-2025 12:13:10	15146.246277	120.414730	none	NaN	NaN
105	8	35	50	kitchen	sun_amjjdeyrggfqgmom.tif	15268.911022	15269.169347	15271.155129	26-Mar-2025 12:13:10	15146.246277	122.664745	none	NaN	NaN
105	8	36	24	kitchen	sun_acfmftudsenhrfhy.tif	15271.161404	15271.419845	15273.405968	26-Mar-2025 12:13:10	15146.246277	124.915128	none	NaN	NaN
105	8	37	23	kitchen	sun_abrcnpqqhmjwekyf.tif	15273.411252	15273.669323	15275.655569	26-Mar-2025 12:13:10	15146.246277	127.164976	none	NaN	NaN
105	8	38	44	kitchen	sun_ahywdevtimnqcsln.tif	15275.660919	15275.919320	15277.905332	26-Mar-2025 12:13:10	15146.246277	129.414642	6	15280.066573	1.000000
105	8	39	56	kitchen	sun_awcpdzzznmweyyhv.tif	15284.919217	15285.177567	15287.163078	26-Mar-2025 12:13:10	15146.246277	138.672940	5	15288.340250	1.000000
105	8	40	53	kitchen	sun_aunzlwrbjumxhwdj.tif	15294.194377	15294.452962	15296.438514	26-Mar-2025 12:13:10	15146.246277	147.948100	none	NaN	NaN
105	8	41	49	kitchen	sun_akcjzhbbjlbogpdi.tif	15296.452483	15296.711282	15298.696338	26-Mar-2025 12:13:10	15146.246277	150.206206	none	NaN	NaN
105	8	42	13	kitchen	labelme_rykdqxenmhulbdn.tif	15298.702745	15298.961267	15300.947173	26-Mar-2025 12:13:10	15146.246277	152.456468	none	NaN	NaN
105	8	43	11	kitchen	labelme_brsyyvweiuaazfr.tif	15300.952383	15301.210770	15303.196398	26-Mar-2025 12:13:10	15146.246277	154.706107	6	15304.688870	1.000000
105	8	44	38	kitchen	sun_agubuxuukhzyzpdp.tif	15310.219022	15310.477371	15312.462947	26-Mar-2025 12:13:10	15146.246277	163.972746	none	NaN	NaN
105	8	45	45	kitchen	sun_aixorpehvfykdynp.tif	15312.468990	15312.727343	15314.713003	26-Mar-2025 12:13:10	15146.246277	166.222714	none	NaN	NaN
105	8	46	12	kitchen	labelme_kxvouciolcpqplr.tif	15314.727328	15314.985646	15316.971240	26-Mar-2025 12:13:10	15146.246277	168.481051	none	NaN	NaN
105	8	47	28	kitchen	sun_adgqasybjyktddhj.tif	15316.977302	15317.235628	15319.221338	26-Mar-2025 12:13:10	15146.246277	170.731025	none	NaN	NaN
105	8	48	32	kitchen	sun_aenotlpyftoioydp.tif	15319.227290	15319.485617	15321.471100	26-Mar-2025 12:13:10	15146.246277	172.981013	none	NaN	NaN
105	8	49	40	kitchen	sun_ahdycvpopffkzzsu.tif	15321.477261	15321.735600	15323.721662	26-Mar-2025 12:13:10	15146.246277	175.230984	6	15325.007513	1.000000
105	8	50	57	kitchen	sun_axyyrmzcupyhlivc.tif	15330.743868	15331.002695	15332.988272	26-Mar-2025 12:13:10	15146.246277	184.497592	none	NaN	NaN
105	8	51	59	kitchen	sun_aypmqwcualkenuoe.tif	15332.994144	15333.252613	15335.238032	26-Mar-2025 12:13:10	15146.246277	186.747867	none	NaN	NaN
105	8	52	25	kitchen	sun_acgtpgfybqjmzeyw.tif	15335.244159	15335.502606	15337.488577	26-Mar-2025 12:13:10	15146.246277	188.997883	none	NaN	NaN
105	8	53	26	kitchen	sun_acwjdupvyjsugpay.tif	15337.494119	15337.752573	15339.738298	26-Mar-2025 12:13:10	15146.246277	191.247843	none	NaN	NaN
105	8	54	16	kitchen	sun_aapllqyqlykszopd.tif	15339.743756	15340.002603	15341.987527	26-Mar-2025 12:13:10	15146.246277	193.497479	none	NaN	NaN
105	8	55	57	kitchen	sun_axyyrmzcupyhlivc.tif	15341.994211	15342.252121	15344.238125	26-Mar-2025 12:13:10	15146.246277	195.747935	none	NaN	NaN
105	8	56	14	kitchen	sun_aadbddgrdsjugojn.tif	15344.243716	15344.502459	15346.487474	26-Mar-2025 12:13:10	15146.246277	197.997439	none	NaN	NaN
105	8	57	51	kitchen	sun_aqeaevwwwjoqhzvl.tif	15346.494194	15346.752578	15348.738707	26-Mar-2025 12:13:10	15146.246277	200.247918	none	NaN	NaN
105	8	58	29	kitchen	sun_admlmbcdswaszruo.tif	15348.743698	15349.002075	15350.987723	26-Mar-2025 12:13:10	15146.246277	202.497422	none	NaN	NaN
105	8	59	11	kitchen	labelme_brsyyvweiuaazfr.tif	15350.994135	15351.252084	15353.238007	26-Mar-2025 12:13:10	15146.246277	204.747858	5	15354.490089	1.000000
105	8	60	42	kitchen	sun_ahpczsiumwwocjkv.tif	15360.260267	15360.518620	15362.504142	26-Mar-2025 12:13:10	15146.246277	214.013991	none	NaN	NaN
105	8	61	13	kitchen	labelme_rykdqxenmhulbdn.tif	15362.510280	15362.768613	15364.754485	26-Mar-2025 12:13:10	15146.246277	216.264004	none	NaN	NaN
105	8	62	43	kitchen	sun_ahspylgoovwmwvgk.tif	15364.760268	15365.018597	15367.004550	26-Mar-2025 12:13:10	15146.246277	218.513991	6	15368.510156	1.000000
105	8	63	56	kitchen	sun_awcpdzzznmweyyhv.tif	15374.035186	15374.293489	15376.279700	26-Mar-2025 12:13:10	15146.246277	227.788909	none	NaN	NaN
105	8	64	33	kitchen	sun_aeqdocilnnpuvuhx.tif	15376.285149	15376.543511	15378.529489	26-Mar-2025 12:13:10	15146.246277	230.038873	none	NaN	NaN
105	8	65	20	kitchen	sun_abdxkyyxwfskuaqb.tif	15378.535140	15378.793493	15380.779116	26-Mar-2025 12:13:10	15146.246277	232.288863	5	15382.194431	1.000000
105	8	66	34	kitchen	sun_aexklacwqwezaorf.tif	15387.801751	15388.060087	15390.045874	26-Mar-2025 12:13:10	15146.246277	241.555475	none	NaN	NaN
105	8	67	28	kitchen	sun_adgqasybjyktddhj.tif	15390.051696	15390.310449	15392.295749	26-Mar-2025 12:13:10	15146.246277	243.805419	none	NaN	NaN
105	8	68	27	kitchen	sun_acxkpeoqbwcxfvip.tif	15392.301991	15392.560436	15394.546451	26-Mar-2025 12:13:10	15146.246277	246.055714	none	NaN	NaN
105	8	69	24	kitchen	sun_acfmftudsenhrfhy.tif	15394.560423	15394.818750	15396.804886	26-Mar-2025 12:13:10	15146.246277	248.314146	none	NaN	NaN
105	8	70	44	kitchen	sun_ahywdevtimnqcsln.tif	15396.818740	15397.076985	15399.062817	26-Mar-2025 12:13:10	15146.246277	250.572464	none	NaN	NaN
105	8	71	45	kitchen	sun_aixorpehvfykdynp.tif	15399.068326	15399.327048	15401.312266	26-Mar-2025 12:13:10	15146.246277	252.822049	none	NaN	NaN
105	8	72	23	kitchen	sun_abrcnpqqhmjwekyf.tif	15401.318288	15401.576662	15403.562471	26-Mar-2025 12:13:10	15146.246277	255.072012	none	NaN	NaN
105	8	73	38	kitchen	sun_agubuxuukhzyzpdp.tif	15403.568540	15403.826720	15405.813036	26-Mar-2025 12:13:10	15146.246277	257.322264	none	NaN	NaN
105	8	74	48	kitchen	sun_akchetnepxlcxhsu.tif	15405.818220	15406.076624	15408.062336	26-Mar-2025 12:13:10	15146.246277	259.571943	none	NaN	NaN
105	8	75	30	kitchen	sun_aegoxogugdkwpmpj.tif	15408.068254	15408.326983	15410.312293	26-Mar-2025 12:13:10	15146.246277	261.821977	none	NaN	NaN
105	8	76	15	kitchen	sun_aamedkxepzlwuxes.tif	15410.318220	15410.576956	15412.562615	26-Mar-2025 12:13:10	15146.246277	264.071944	none	NaN	NaN
105	8	77	53	kitchen	sun_aunzlwrbjumxhwdj.tif	15412.568464	15412.826938	15414.812807	26-Mar-2025 12:13:10	15146.246277	266.322188	5	15416.188816	0.000000
105	8	78	36	kitchen	sun_aggjlwcdjsjcaemh.tif	15421.843160	15422.101471	15424.087675	26-Mar-2025 12:13:10	15146.246277	275.596884	none	NaN	NaN
105	8	79	21	kitchen	sun_abftihopvusyfakt.tif	15424.101300	15424.359799	15426.345212	26-Mar-2025 12:13:10	15146.246277	277.855024	none	NaN	NaN
105	8	80	31	kitchen	sun_aehawpgmrlhlvcow.tif	15426.351432	15426.609781	15428.595201	26-Mar-2025 12:13:10	15146.246277	280.105156	none	NaN	NaN
105	8	81	46	kitchen	sun_ajcbwwvdlsvjyzje.tif	15428.609763	15428.868089	15430.853702	26-Mar-2025 12:13:10	15146.246277	282.363486	none	NaN	NaN
105	8	82	52	kitchen	sun_auaiucuqpdausiva.tif	15430.868068	15431.126407	15433.112023	26-Mar-2025 12:13:10	15146.246277	284.621792	none	NaN	NaN
105	8	83	12	kitchen	labelme_kxvouciolcpqplr.tif	15433.118058	15433.376400	15435.362527	26-Mar-2025 12:13:10	15146.246277	286.871782	none	NaN	NaN
105	8	84	58	kitchen	sun_aymvwlarqodbwuoc.tif	15435.367986	15435.626379	15437.611932	26-Mar-2025 12:13:10	15146.246277	289.121709	none	NaN	NaN
105	8	85	22	kitchen	sun_abpwyqmlzafvklqo.tif	15437.617988	15437.876361	15439.862361	26-Mar-2025 12:13:10	15146.246277	291.371711	none	NaN	NaN
105	8	86	37	kitchen	sun_agorklincwxrdtga.tif	15439.867973	15440.126344	15442.112235	26-Mar-2025 12:13:10	15146.246277	293.621697	5	15443.065767	1.000000
105	8	87	40	kitchen	sun_ahdycvpopffkzzsu.tif	15449.142942	15449.401260	15451.387330	26-Mar-2025 12:13:10	15146.246277	302.896666	none	NaN	NaN
105	8	88	32	kitchen	sun_aenotlpyftoioydp.tif	15451.401261	15451.659592	15453.645297	26-Mar-2025 12:13:10	15146.246277	305.154984	none	NaN	NaN
105	8	89	50	kitchen	sun_amjjdeyrggfqgmom.tif	15453.651179	15453.909953	15455.895410	26-Mar-2025 12:13:10	15146.246277	307.404903	none	NaN	NaN
105	8	90	17	kitchen	sun_aarfiyshqohlwkmo.tif	15455.901536	15456.159561	15458.145825	26-Mar-2025 12:13:10	15146.246277	309.655259	none	NaN	NaN
105	8	91	54	kitchen	sun_auticobqsbwgoppi.tif	15458.159914	15458.418255	15460.404408	26-Mar-2025 12:13:10	15146.246277	311.913638	none	NaN	NaN
105	8	92	60	kitchen	sun_azmutvzbxypaceni.tif	15460.417859	15460.676194	15462.661625	26-Mar-2025 12:13:10	15146.246277	314.171582	none	NaN	NaN
105	8	93	55	kitchen	sun_avszsnwsbuqfgzbn.tif	15462.668203	15462.926548	15464.912608	26-Mar-2025 12:13:10	15146.246277	316.421926	none	NaN	NaN
105	8	94	47	kitchen	sun_ajkqhtgcbgpcwrwn.tif	15464.917764	15465.176528	15467.161804	26-Mar-2025 12:13:10	15146.246277	318.671487	none	NaN	NaN
105	8	95	35	kitchen	sun_afuyedyxivkhecmu.tif	15467.168160	15467.426138	15469.412022	26-Mar-2025 12:13:10	15146.246277	320.921883	none	NaN	NaN
105	8	96	39	kitchen	sun_agzzivivdpnawacl.tif	15469.418129	15469.676115	15471.662709	26-Mar-2025 12:13:10	15146.246277	323.171852	none	NaN	NaN
105	8	97	41	kitchen	sun_ahljzhgcdpomplvg.tif	15471.676587	15471.934440	15473.920403	26-Mar-2025 12:13:10	15146.246277	325.430311	none	NaN	NaN
105	8	98	49	kitchen	sun_akcjzhbbjlbogpdi.tif	15473.934801	15474.193126	15476.178982	26-Mar-2025 12:13:10	15146.246277	327.688525	none	NaN	NaN
105	8	99	18	kitchen	sun_aaxxjlsuzvqlgylf.tif	15476.192733	15476.451443	15478.437027	26-Mar-2025 12:13:10	15146.246277	329.946456	none	NaN	NaN
105	8	100	19	kitchen	sun_abdenxonkemggwsq.tif	15478.442995	15478.701422	15480.686821	26-Mar-2025 12:13:10	15146.246277	332.196718	none	NaN	NaN
