subject	run	trial	texture	category	image	trialOnset	itiOnset	trialEnd	triggerDate	triggerTimeStamp	Onsets	responseKey	responseTime	accuracy
105	2	1	12	kitchen	labelme_kxvouciolcpqplr.tif	12536.891723	12537.149695	12539.136204	26-Mar-2025 11:29:36	12532.862766	4.028957	none	NaN	NaN
105	2	2	32	kitchen	sun_aenotlpyftoioydp.tif	12539.150053	12539.408377	12541.393823	26-Mar-2025 11:29:36	12532.862766	6.287286	none	NaN	NaN
105	2	3	30	kitchen	sun_aegoxogugdkwpmpj.tif	12541.399626	12541.657974	12543.643772	26-Mar-2025 11:29:36	12532.862766	8.536859	none	NaN	NaN
105	2	4	34	kitchen	sun_aexklacwqwezaorf.tif	12543.649603	12543.907957	12545.893450	26-Mar-2025 11:29:36	12532.862766	10.786836	5	12548.316801	1.000000
105	2	5	38	kitchen	sun_agubuxuukhzyzpdp.tif	12552.932866	12553.191203	12555.177301	26-Mar-2025 11:29:36	12532.862766	20.070100	none	NaN	NaN
105	2	6	35	kitchen	sun_afuyedyxivkhecmu.tif	12555.182857	12555.441188	12557.427083	26-Mar-2025 11:29:36	12532.862766	22.320091	none	NaN	NaN
105	2	7	23	kitchen	sun_abrcnpqqhmjwekyf.tif	12557.432813	12557.691164	12559.677147	26-Mar-2025 11:29:36	12532.862766	24.570046	none	NaN	NaN
105	2	8	49	kitchen	sun_akcjzhbbjlbogpdi.tif	12559.682815	12559.941149	12561.926805	26-Mar-2025 11:29:36	12532.862766	26.820049	none	NaN	NaN
105	2	9	25	kitchen	sun_acgtpgfybqjmzeyw.tif	12561.932780	12562.191124	12564.177137	26-Mar-2025 11:29:36	12532.862766	29.070014	none	NaN	NaN
105	2	10	42	kitchen	sun_ahpczsiumwwocjkv.tif	12564.182799	12564.441102	12566.426624	26-Mar-2025 11:29:36	12532.862766	31.320033	none	NaN	NaN
105	2	11	17	kitchen	sun_aarfiyshqohlwkmo.tif	12566.432677	12566.691088	12568.677205	26-Mar-2025 11:29:36	12532.862766	33.569911	none	NaN	NaN
105	2	12	39	kitchen	sun_agzzivivdpnawacl.tif	12568.682675	12568.941065	12570.926477	26-Mar-2025 11:29:36	12532.862766	35.819909	none	NaN	NaN
105	2	13	37	kitchen	sun_agorklincwxrdtga.tif	12570.932704	12571.191440	12573.177132	26-Mar-2025 11:29:36	12532.862766	38.069937	none	NaN	NaN
105	2	14	20	kitchen	sun_abdxkyyxwfskuaqb.tif	12573.183046	12573.441413	12575.426830	26-Mar-2025 11:29:36	12532.862766	40.320280	none	NaN	NaN
105	2	15	19	kitchen	sun_abdenxonkemggwsq.tif	12575.433010	12575.691551	12577.677272	26-Mar-2025 11:29:36	12532.862766	42.570243	none	NaN	NaN
105	2	16	16	kitchen	sun_aapllqyqlykszopd.tif	12577.682979	12577.941375	12579.927147	26-Mar-2025 11:29:36	12532.862766	44.820213	none	NaN	NaN
105	2	17	54	kitchen	sun_auticobqsbwgoppi.tif	12579.940953	12580.199300	12582.185137	26-Mar-2025 11:29:36	12532.862766	47.078187	none	NaN	NaN
105	2	18	40	kitchen	sun_ahdycvpopffkzzsu.tif	12582.191291	12582.449295	12584.435050	26-Mar-2025 11:29:36	12532.862766	49.328525	none	NaN	NaN
105	2	19	46	kitchen	sun_ajcbwwvdlsvjyzje.tif	12584.441275	12584.699286	12586.685123	26-Mar-2025 11:29:36	12532.862766	51.578508	6	12588.911634	0.000000
105	2	20	15	kitchen	sun_aamedkxepzlwuxes.tif	12593.707473	12593.965866	12595.951253	26-Mar-2025 11:29:36	12532.862766	60.844706	none	NaN	NaN
105	2	21	56	kitchen	sun_awcpdzzznmweyyhv.tif	12595.957497	12596.215838	12598.201874	26-Mar-2025 11:29:36	12532.862766	63.094730	none	NaN	NaN
105	2	22	33	kitchen	sun_aeqdocilnnpuvuhx.tif	12598.207476	12598.466095	12600.451718	26-Mar-2025 11:29:36	12532.862766	65.344710	none	NaN	NaN
105	2	23	14	kitchen	sun_aadbddgrdsjugojn.tif	12600.457416	12600.715801	12602.701579	26-Mar-2025 11:29:36	12532.862766	67.594649	none	NaN	NaN
105	2	24	11	kitchen	labelme_brsyyvweiuaazfr.tif	12602.707436	12602.965789	12604.952031	26-Mar-2025 11:29:36	12532.862766	69.844669	5	12606.540309	1.000000
105	2	25	57	kitchen	sun_axyyrmzcupyhlivc.tif	12611.974025	12612.232356	12614.218095	26-Mar-2025 11:29:36	12532.862766	79.111259	none	NaN	NaN
105	2	26	41	kitchen	sun_ahljzhgcdpomplvg.tif	12614.232342	12614.490685	12616.476693	26-Mar-2025 11:29:36	12532.862766	81.369576	none	NaN	NaN
105	2	27	44	kitchen	sun_ahywdevtimnqcsln.tif	12616.482318	12616.740653	12618.726741	26-Mar-2025 11:29:36	12532.862766	83.619551	none	NaN	NaN
105	2	28	28	kitchen	sun_adgqasybjyktddhj.tif	12618.732249	12618.990644	12620.976226	26-Mar-2025 11:29:36	12532.862766	85.869482	none	NaN	NaN
105	2	29	52	kitchen	sun_auaiucuqpdausiva.tif	12620.990631	12621.248954	12623.234957	26-Mar-2025 11:29:36	12532.862766	88.127865	none	NaN	NaN
105	2	30	45	kitchen	sun_aixorpehvfykdynp.tif	12623.248942	12623.507257	12625.493422	26-Mar-2025 11:29:36	12532.862766	90.386175	none	NaN	NaN
105	2	31	31	kitchen	sun_aehawpgmrlhlvcow.tif	12625.498925	12625.757254	12627.742935	26-Mar-2025 11:29:36	12532.862766	92.636158	none	NaN	NaN
105	2	32	24	kitchen	sun_acfmftudsenhrfhy.tif	12627.748869	12628.007215	12629.992875	26-Mar-2025 11:29:36	12532.862766	94.886103	none	NaN	NaN
105	2	33	22	kitchen	sun_abpwyqmlzafvklqo.tif	12629.998880	12630.257631	12632.243085	26-Mar-2025 11:29:36	12532.862766	97.136114	none	NaN	NaN
105	2	34	59	kitchen	sun_aypmqwcualkenuoe.tif	12632.248825	12632.507193	12634.493119	26-Mar-2025 11:29:36	12532.862766	99.386058	none	NaN	NaN
105	2	35	13	kitchen	labelme_rykdqxenmhulbdn.tif	12634.498759	12634.757591	12636.743031	26-Mar-2025 11:29:36	12532.862766	101.635993	none	NaN	NaN
105	2	36	55	kitchen	sun_avszsnwsbuqfgzbn.tif	12636.749278	12637.007570	12638.993378	26-Mar-2025 11:29:36	12532.862766	103.886512	none	NaN	NaN
105	2	37	48	kitchen	sun_akchetnepxlcxhsu.tif	12638.998750	12639.257133	12641.242775	26-Mar-2025 11:29:36	12532.862766	106.135983	5	12643.262502	0.000000
105	2	38	36	kitchen	sun_aggjlwcdjsjcaemh.tif	12648.265844	12648.524195	12650.510343	26-Mar-2025 11:29:36	12532.862766	115.403078	none	NaN	NaN
105	2	39	18	kitchen	sun_aaxxjlsuzvqlgylf.tif	12650.523689	12650.782401	12652.767767	26-Mar-2025 11:29:36	12532.862766	117.660923	none	NaN	NaN
105	2	40	21	kitchen	sun_abftihopvusyfakt.tif	12652.773675	12653.032388	12655.018245	26-Mar-2025 11:29:36	12532.862766	119.910908	5	12656.471841	0.000000
105	2	41	43	kitchen	sun_ahspylgoovwmwvgk.tif	12662.040258	12662.298594	12664.284531	26-Mar-2025 11:29:36	12532.862766	129.177491	none	NaN	NaN
105	2	42	50	kitchen	sun_amjjdeyrggfqgmom.tif	12664.290237	12664.548567	12666.534754	26-Mar-2025 11:29:36	12532.862766	131.427470	none	NaN	NaN
105	2	43	58	kitchen	sun_aymvwlarqodbwuoc.tif	12666.540158	12666.798548	12668.783975	26-Mar-2025 11:29:36	12532.862766	133.677392	none	NaN	NaN
105	2	44	26	kitchen	sun_acwjdupvyjsugpay.tif	12668.790186	12669.048530	12671.034284	26-Mar-2025 11:29:36	12532.862766	135.927419	none	NaN	NaN
105	2	45	47	kitchen	sun_ajkqhtgcbgpcwrwn.tif	12671.040131	12671.298510	12673.284834	26-Mar-2025 11:29:36	12532.862766	138.177365	none	NaN	NaN
105	2	46	29	kitchen	sun_admlmbcdswaszruo.tif	12673.290124	12673.548494	12675.534375	26-Mar-2025 11:29:36	12532.862766	140.427358	6	12678.177952	0.000000
105	2	47	27	kitchen	sun_acxkpeoqbwcxfvip.tif	12682.556749	12682.815084	12684.800700	26-Mar-2025 11:29:36	12532.862766	149.693982	none	NaN	NaN
105	2	48	53	kitchen	sun_aunzlwrbjumxhwdj.tif	12684.806710	12685.065062	12687.050663	26-Mar-2025 11:29:36	12532.862766	151.943944	none	NaN	NaN
105	2	49	60	kitchen	sun_azmutvzbxypaceni.tif	12687.056685	12687.315051	12689.301198	26-Mar-2025 11:29:36	12532.862766	154.193918	none	NaN	NaN
105	2	50	51	kitchen	sun_aqeaevwwwjoqhzvl.tif	12689.306638	12689.565020	12691.550907	26-Mar-2025 11:29:36	12532.862766	156.443872	none	NaN	NaN
105	2	51	38	kitchen	sun_agubuxuukhzyzpdp.tif	12691.557135	12691.815013	12693.801213	26-Mar-2025 11:29:36	12532.862766	158.694369	none	NaN	NaN
105	2	52	42	kitchen	sun_ahpczsiumwwocjkv.tif	12693.807013	12694.065422	12696.050874	26-Mar-2025 11:29:36	12532.862766	160.944247	none	NaN	NaN
105	2	53	16	kitchen	sun_aapllqyqlykszopd.tif	12696.065452	12696.323307	12698.309414	26-Mar-2025 11:29:36	12532.862766	163.202686	5	12699.695081	0.000000
105	2	54	52	kitchen	sun_auaiucuqpdausiva.tif	12705.340153	12705.598687	12707.584188	26-Mar-2025 11:29:36	12532.862766	172.477387	none	NaN	NaN
105	2	55	28	kitchen	sun_adgqasybjyktddhj.tif	12707.589830	12707.848635	12709.834246	26-Mar-2025 11:29:36	12532.862766	174.727063	6	12711.287378	1.000000
105	2	56	18	kitchen	sun_aaxxjlsuzvqlgylf.tif	12716.865166	12717.123504	12719.109423	26-Mar-2025 11:29:36	12532.862766	184.002400	none	NaN	NaN
105	2	57	12	kitchen	labelme_kxvouciolcpqplr.tif	12719.115130	12719.373578	12721.359046	26-Mar-2025 11:29:36	12532.862766	186.252364	none	NaN	NaN
105	2	58	50	kitchen	sun_amjjdeyrggfqgmom.tif	12721.364690	12721.623074	12723.608905	26-Mar-2025 11:29:36	12532.862766	188.501924	none	NaN	NaN
105	2	59	24	kitchen	sun_acfmftudsenhrfhy.tif	12723.614694	12723.873053	12725.858626	26-Mar-2025 11:29:36	12532.862766	190.751927	none	NaN	NaN
105	2	60	59	kitchen	sun_aypmqwcualkenuoe.tif	12725.864690	12726.123034	12728.108983	26-Mar-2025 11:29:36	12532.862766	193.001924	none	NaN	NaN
105	2	61	55	kitchen	sun_avszsnwsbuqfgzbn.tif	12728.114663	12728.373025	12730.359139	26-Mar-2025 11:29:36	12532.862766	195.251897	none	NaN	NaN
105	2	62	17	kitchen	sun_aarfiyshqohlwkmo.tif	12730.364668	12730.623002	12732.608585	26-Mar-2025 11:29:36	12532.862766	197.501902	none	NaN	NaN
105	2	63	33	kitchen	sun_aeqdocilnnpuvuhx.tif	12732.614624	12732.872976	12734.858699	26-Mar-2025 11:29:36	12532.862766	199.751858	5	12736.860510	1.000000
105	2	64	40	kitchen	sun_ahdycvpopffkzzsu.tif	12741.889560	12742.147909	12744.134046	26-Mar-2025 11:29:36	12532.862766	209.026793	none	NaN	NaN
105	2	65	25	kitchen	sun_acgtpgfybqjmzeyw.tif	12744.139557	12744.397882	12746.384052	26-Mar-2025 11:29:36	12532.862766	211.276791	none	NaN	NaN
105	2	66	51	kitchen	sun_aqeaevwwwjoqhzvl.tif	12746.389477	12746.647861	12748.633379	26-Mar-2025 11:29:36	12532.862766	213.526710	none	NaN	NaN
105	2	67	32	kitchen	sun_aenotlpyftoioydp.tif	12748.639506	12748.897843	12750.883365	26-Mar-2025 11:29:36	12532.862766	215.776739	none	NaN	NaN
105	2	68	47	kitchen	sun_ajkqhtgcbgpcwrwn.tif	12750.889475	12751.148307	12753.133691	26-Mar-2025 11:29:36	12532.862766	218.026708	6	12754.976963	0.000000
105	2	69	27	kitchen	sun_acxkpeoqbwcxfvip.tif	12760.156071	12760.414796	12762.400315	26-Mar-2025 11:29:36	12532.862766	227.293304	none	NaN	NaN
105	2	70	13	kitchen	labelme_rykdqxenmhulbdn.tif	12762.406033	12762.664402	12764.649864	26-Mar-2025 11:29:36	12532.862766	229.543266	none	NaN	NaN
105	2	71	37	kitchen	sun_agorklincwxrdtga.tif	12764.656639	12764.914847	12766.901139	26-Mar-2025 11:29:36	12532.862766	231.793872	none	NaN	NaN
105	2	72	34	kitchen	sun_aexklacwqwezaorf.tif	12766.906024	12767.164734	12769.149858	26-Mar-2025 11:29:36	12532.862766	234.043257	none	NaN	NaN
105	2	73	44	kitchen	sun_ahywdevtimnqcsln.tif	12769.156468	12769.414929	12771.400542	26-Mar-2025 11:29:36	12532.862766	236.293702	none	NaN	NaN
105	2	74	15	kitchen	sun_aamedkxepzlwuxes.tif	12771.414329	12771.673048	12773.658337	26-Mar-2025 11:29:36	12532.862766	238.551563	none	NaN	NaN
105	2	75	46	kitchen	sun_ajcbwwvdlsvjyzje.tif	12773.664301	12773.922647	12775.908647	26-Mar-2025 11:29:36	12532.862766	240.801535	5	12778.550862	0.000000
105	2	76	56	kitchen	sun_awcpdzzznmweyyhv.tif	12782.930902	12783.189217	12785.175009	26-Mar-2025 11:29:36	12532.862766	250.068136	none	NaN	NaN
105	2	77	30	kitchen	sun_aegoxogugdkwpmpj.tif	12785.180845	12785.439204	12787.425212	26-Mar-2025 11:29:36	12532.862766	252.318078	none	NaN	NaN
105	2	78	45	kitchen	sun_aixorpehvfykdynp.tif	12787.430809	12787.689175	12789.675213	26-Mar-2025 11:29:36	12532.862766	254.568043	none	NaN	NaN
105	2	79	31	kitchen	sun_aehawpgmrlhlvcow.tif	12789.680806	12789.939156	12791.925320	26-Mar-2025 11:29:36	12532.862766	256.818040	none	NaN	NaN
105	2	80	26	kitchen	sun_acwjdupvyjsugpay.tif	12791.930820	12792.189145	12794.174721	26-Mar-2025 11:29:36	12532.862766	259.068054	6	12796.806415	1.000000
105	2	81	11	kitchen	labelme_brsyyvweiuaazfr.tif	12801.197384	12801.455729	12803.441566	26-Mar-2025 11:29:36	12532.862766	268.334617	none	NaN	NaN
105	2	82	48	kitchen	sun_akchetnepxlcxhsu.tif	12803.447370	12803.705717	12805.691224	26-Mar-2025 11:29:36	12532.862766	270.584603	none	NaN	NaN
105	2	83	41	kitchen	sun_ahljzhgcdpomplvg.tif	12805.697336	12805.955692	12807.941259	26-Mar-2025 11:29:36	12532.862766	272.834570	none	NaN	NaN
105	2	84	22	kitchen	sun_abpwyqmlzafvklqo.tif	12807.947339	12808.205673	12810.191617	26-Mar-2025 11:29:36	12532.862766	275.084572	none	NaN	NaN
105	2	85	57	kitchen	sun_axyyrmzcupyhlivc.tif	12810.197323	12810.456178	12812.441949	26-Mar-2025 11:29:36	12532.862766	277.334556	none	NaN	NaN
105	2	86	54	kitchen	sun_auticobqsbwgoppi.tif	12812.447267	12812.706011	12814.691669	26-Mar-2025 11:29:36	12532.862766	279.584501	none	NaN	NaN
105	2	87	58	kitchen	sun_aymvwlarqodbwuoc.tif	12814.697660	12814.956096	12816.942110	26-Mar-2025 11:29:36	12532.862766	281.834893	none	NaN	NaN
105	2	88	43	kitchen	sun_ahspylgoovwmwvgk.tif	12816.947683	12817.206033	12819.191590	26-Mar-2025 11:29:36	12532.862766	284.084916	none	NaN	NaN
105	2	89	36	kitchen	sun_aggjlwcdjsjcaemh.tif	12819.197220	12819.456060	12821.441768	26-Mar-2025 11:29:36	12532.862766	286.334453	5	12825.024872	0.000000
105	2	90	53	kitchen	sun_aunzlwrbjumxhwdj.tif	12828.463805	12828.722648	12830.707726	26-Mar-2025 11:29:36	12532.862766	295.601039	none	NaN	NaN
105	2	91	23	kitchen	sun_abrcnpqqhmjwekyf.tif	12830.713788	12830.972543	12832.958395	26-Mar-2025 11:29:36	12532.862766	297.851022	none	NaN	NaN
105	2	92	39	kitchen	sun_agzzivivdpnawacl.tif	12832.963723	12833.222607	12835.207866	26-Mar-2025 11:29:36	12532.862766	300.100956	6	12836.770481	0.000000
105	2	93	21	kitchen	sun_abftihopvusyfakt.tif	12842.230383	12842.488711	12844.474464	26-Mar-2025 11:29:36	12532.862766	309.367616	none	NaN	NaN
105	2	94	35	kitchen	sun_afuyedyxivkhecmu.tif	12844.480364	12844.738701	12846.724279	26-Mar-2025 11:29:36	12532.862766	311.617597	none	NaN	NaN
105	2	95	14	kitchen	sun_aadbddgrdsjugojn.tif	12846.730350	12846.989096	12848.974451	26-Mar-2025 11:29:36	12532.862766	313.867584	none	NaN	NaN
105	2	96	60	kitchen	sun_azmutvzbxypaceni.tif	12848.980278	12849.238659	12851.224359	26-Mar-2025 11:29:36	12532.862766	316.117512	none	NaN	NaN
105	2	97	20	kitchen	sun_abdxkyyxwfskuaqb.tif	12851.230313	12851.488630	12853.474184	26-Mar-2025 11:29:36	12532.862766	318.367546	none	NaN	NaN
105	2	98	49	kitchen	sun_akcjzhbbjlbogpdi.tif	12853.480252	12853.738622	12855.724113	26-Mar-2025 11:29:36	12532.862766	320.617486	none	NaN	NaN
105	2	99	29	kitchen	sun_admlmbcdswaszruo.tif	12855.730266	12855.988601	12857.974155	26-Mar-2025 11:29:36	12532.862766	322.867500	5	12859.998804	1.000000
105	2	100	19	kitchen	sun_abdenxonkemggwsq.tif	12865.005190	12865.263530	12867.249200	26-Mar-2025 11:29:36	12532.862766	332.142423	none	NaN	NaN
