subject	run	trial	texture	category	image	trialOnset	itiOnset	trialEnd	triggerDate	triggerTimeStamp	Onsets	responseKey	responseTime	accuracy
105	12	1	25	kitchen	sun_acgtpgfybqjmzeyw.tif	16967.272728	16967.531054	16969.516887	26-Mar-2025 12:43:27	16963.245233	4.027495	none	NaN	NaN
105	12	2	15	kitchen	sun_aamedkxepzlwuxes.tif	16969.523029	16969.781568	16971.767062	26-Mar-2025 12:43:27	16963.245233	6.277797	none	NaN	NaN
105	12	3	32	kitchen	sun_aenotlpyftoioydp.tif	16971.772643	16972.031028	16974.016869	26-Mar-2025 12:43:27	16963.245233	8.527410	none	NaN	NaN
105	12	4	18	kitchen	sun_aaxxjlsuzvqlgylf.tif	16974.023081	16974.281473	16976.267437	26-Mar-2025 12:43:27	16963.245233	10.777849	none	NaN	NaN
105	12	5	60	kitchen	sun_azmutvzbxypaceni.tif	16976.281369	16976.539785	16978.525637	26-Mar-2025 12:43:27	16963.245233	13.036137	none	NaN	NaN
105	12	6	34	kitchen	sun_aexklacwqwezaorf.tif	16978.530949	16978.789790	16980.775017	26-Mar-2025 12:43:27	16963.245233	15.285716	none	NaN	NaN
105	12	7	33	kitchen	sun_aeqdocilnnpuvuhx.tif	16980.780866	16981.039138	16983.024835	26-Mar-2025 12:43:27	16963.245233	17.535633	5	16983.828321	1.000000
105	12	8	20	kitchen	sun_abdxkyyxwfskuaqb.tif	16990.055658	16990.314023	16992.299492	26-Mar-2025 12:43:27	16963.245233	26.810425	none	NaN	NaN
105	12	9	11	kitchen	labelme_brsyyvweiuaazfr.tif	16992.305703	16992.564063	16994.549611	26-Mar-2025 12:43:27	16963.245233	29.060470	none	NaN	NaN
105	12	10	30	kitchen	sun_aegoxogugdkwpmpj.tif	16994.555747	16994.814069	16996.800001	26-Mar-2025 12:43:27	16963.245233	31.310514	none	NaN	NaN
105	12	11	53	kitchen	sun_aunzlwrbjumxhwdj.tif	16996.805664	16997.064002	16999.049624	26-Mar-2025 12:43:27	16963.245233	33.560432	none	NaN	NaN
105	12	12	13	kitchen	labelme_rykdqxenmhulbdn.tif	16999.055775	16999.314020	17001.299802	26-Mar-2025 12:43:27	16963.245233	35.810542	none	NaN	NaN
105	12	13	21	kitchen	sun_abftihopvusyfakt.tif	17001.305636	17001.564487	17003.549765	26-Mar-2025 12:43:27	16963.245233	38.060404	none	NaN	NaN
105	12	14	39	kitchen	sun_agzzivivdpnawacl.tif	17003.555620	17003.813974	17005.799931	26-Mar-2025 12:43:27	16963.245233	40.310387	none	NaN	NaN
105	12	15	35	kitchen	sun_afuyedyxivkhecmu.tif	17005.813967	17006.072279	17008.057774	26-Mar-2025 12:43:27	16963.245233	42.568734	none	NaN	NaN
105	12	16	42	kitchen	sun_ahpczsiumwwocjkv.tif	17008.063890	17008.322263	17010.307678	26-Mar-2025 12:43:27	16963.245233	44.818657	none	NaN	NaN
105	12	17	43	kitchen	sun_ahspylgoovwmwvgk.tif	17010.314414	17010.572755	17012.558395	26-Mar-2025 12:43:27	16963.245233	47.069182	none	NaN	NaN
105	12	18	58	kitchen	sun_aymvwlarqodbwuoc.tif	17012.564385	17012.822377	17014.808993	26-Mar-2025 12:43:27	16963.245233	49.319153	none	NaN	NaN
105	12	19	51	kitchen	sun_aqeaevwwwjoqhzvl.tif	17014.822360	17015.081150	17017.066566	26-Mar-2025 12:43:27	16963.245233	51.577127	none	NaN	NaN
105	12	20	49	kitchen	sun_akcjzhbbjlbogpdi.tif	17017.072319	17017.331046	17019.316381	26-Mar-2025 12:43:27	16963.245233	53.827086	none	NaN	NaN
105	12	21	55	kitchen	sun_avszsnwsbuqfgzbn.tif	17019.322778	17019.581113	17021.566896	26-Mar-2025 12:43:27	16963.245233	56.077545	none	NaN	NaN
105	12	22	56	kitchen	sun_awcpdzzznmweyyhv.tif	17021.572617	17021.831105	17023.817198	26-Mar-2025 12:43:27	16963.245233	58.327384	none	NaN	NaN
105	12	23	50	kitchen	sun_amjjdeyrggfqgmom.tif	17023.822668	17024.080617	17026.066922	26-Mar-2025 12:43:27	16963.245233	60.577436	6	17026.792141	1.000000
105	12	24	57	kitchen	sun_axyyrmzcupyhlivc.tif	17033.097678	17033.355541	17035.341768	26-Mar-2025 12:43:27	16963.245233	69.852446	none	NaN	NaN
105	12	25	59	kitchen	sun_aypmqwcualkenuoe.tif	17035.347177	17035.605943	17037.591358	26-Mar-2025 12:43:27	16963.245233	72.101944	5	17038.763879	0.000000
105	12	26	37	kitchen	sun_agorklincwxrdtga.tif	17044.622031	17044.880284	17046.865975	26-Mar-2025 12:43:27	16963.245233	81.376798	5	17047.862171	0.000000
105	12	27	28	kitchen	sun_adgqasybjyktddhj.tif	17053.888623	17054.146852	17056.132381	26-Mar-2025 12:43:27	16963.245233	90.643391	none	NaN	NaN
105	12	28	26	kitchen	sun_acwjdupvyjsugpay.tif	17056.138647	17056.396974	17058.382413	26-Mar-2025 12:43:27	16963.245233	92.893415	none	NaN	NaN
105	12	29	14	kitchen	sun_aadbddgrdsjugojn.tif	17058.388555	17058.646914	17060.632417	26-Mar-2025 12:43:27	16963.245233	95.143323	5	17061.534311	1.000000
105	12	30	27	kitchen	sun_acxkpeoqbwcxfvip.tif	17067.655082	17067.913491	17069.899238	26-Mar-2025 12:43:27	16963.245233	104.409850	none	NaN	NaN
105	12	31	22	kitchen	sun_abpwyqmlzafvklqo.tif	17069.905200	17070.163993	17072.149481	26-Mar-2025 12:43:27	16963.245233	106.659967	none	NaN	NaN
105	12	32	45	kitchen	sun_aixorpehvfykdynp.tif	17072.155212	17072.413562	17074.399098	26-Mar-2025 12:43:27	16963.245233	108.909979	none	NaN	NaN
105	12	33	36	kitchen	sun_aggjlwcdjsjcaemh.tif	17074.405648	17074.664024	17076.649614	26-Mar-2025 12:43:27	16963.245233	111.160416	none	NaN	NaN
105	12	34	41	kitchen	sun_ahljzhgcdpomplvg.tif	17076.655118	17076.913533	17078.899562	26-Mar-2025 12:43:27	16963.245233	113.409885	none	NaN	NaN
105	12	35	40	kitchen	sun_ahdycvpopffkzzsu.tif	17078.905499	17079.163976	17081.149979	26-Mar-2025 12:43:27	16963.245233	115.660266	none	NaN	NaN
105	12	36	12	kitchen	labelme_kxvouciolcpqplr.tif	17081.155095	17081.413492	17083.399674	26-Mar-2025 12:43:27	16963.245233	117.909863	none	NaN	NaN
105	12	37	31	kitchen	sun_aehawpgmrlhlvcow.tif	17083.405468	17083.663942	17085.649429	26-Mar-2025 12:43:27	16963.245233	120.160236	none	NaN	NaN
105	12	38	47	kitchen	sun_ajkqhtgcbgpcwrwn.tif	17085.655054	17085.913464	17087.899661	26-Mar-2025 12:43:27	16963.245233	122.409821	none	NaN	NaN
105	12	39	29	kitchen	sun_admlmbcdswaszruo.tif	17087.905070	17088.163816	17090.149446	26-Mar-2025 12:43:27	16963.245233	124.659837	none	NaN	NaN
105	12	40	38	kitchen	sun_agubuxuukhzyzpdp.tif	17090.164054	17090.421760	17092.407986	26-Mar-2025 12:43:27	16963.245233	126.918821	none	NaN	NaN
105	12	41	48	kitchen	sun_akchetnepxlcxhsu.tif	17092.413402	17092.672120	17094.657178	26-Mar-2025 12:43:27	16963.245233	129.168170	none	NaN	NaN
105	12	42	24	kitchen	sun_acfmftudsenhrfhy.tif	17094.663834	17094.922188	17096.908199	26-Mar-2025 12:43:27	16963.245233	131.418602	none	NaN	NaN
105	12	43	17	kitchen	sun_aarfiyshqohlwkmo.tif	17096.922173	17097.180039	17099.166541	26-Mar-2025 12:43:27	16963.245233	133.676940	none	NaN	NaN
105	12	44	16	kitchen	sun_aapllqyqlykszopd.tif	17099.180028	17099.438824	17101.424625	26-Mar-2025 12:43:27	16963.245233	135.934795	none	NaN	NaN
105	12	45	23	kitchen	sun_abrcnpqqhmjwekyf.tif	17101.438152	17101.696489	17103.682443	26-Mar-2025 12:43:27	16963.245233	138.192919	none	NaN	NaN
105	12	46	46	kitchen	sun_ajcbwwvdlsvjyzje.tif	17103.688137	17103.946524	17105.932248	26-Mar-2025 12:43:27	16963.245233	140.442904	none	NaN	NaN
105	12	47	19	kitchen	sun_abdenxonkemggwsq.tif	17105.938158	17106.196508	17108.182189	26-Mar-2025 12:43:27	16963.245233	142.692925	none	NaN	NaN
105	12	48	54	kitchen	sun_auticobqsbwgoppi.tif	17108.188137	17108.446470	17110.431926	26-Mar-2025 12:43:27	16963.245233	144.942905	none	NaN	NaN
105	12	49	44	kitchen	sun_ahywdevtimnqcsln.tif	17110.438111	17110.696442	17112.682101	26-Mar-2025 12:43:27	16963.245233	147.192879	none	NaN	NaN
105	12	50	52	kitchen	sun_auaiucuqpdausiva.tif	17112.696464	17112.954888	17114.941041	26-Mar-2025 12:43:27	16963.245233	149.451231	none	NaN	NaN
105	12	51	56	kitchen	sun_awcpdzzznmweyyhv.tif	17114.954756	17115.213079	17117.199313	26-Mar-2025 12:43:27	16963.245233	151.709524	none	NaN	NaN
105	12	52	59	kitchen	sun_aypmqwcualkenuoe.tif	17117.204698	17117.463053	17119.448858	26-Mar-2025 12:43:27	16963.245233	153.959466	6	17120.591346	1.000000
105	12	53	14	kitchen	sun_aadbddgrdsjugojn.tif	17126.479735	17126.737971	17128.723753	26-Mar-2025 12:43:27	16963.245233	163.234502	none	NaN	NaN
105	12	54	39	kitchen	sun_agzzivivdpnawacl.tif	17128.729626	17128.987984	17130.973714	26-Mar-2025 12:43:27	16963.245233	165.484393	none	NaN	NaN
105	12	55	20	kitchen	sun_abdxkyyxwfskuaqb.tif	17130.979743	17131.238049	17133.223689	26-Mar-2025 12:43:27	16963.245233	167.734510	none	NaN	NaN
105	12	56	17	kitchen	sun_aarfiyshqohlwkmo.tif	17133.230165	17133.488503	17135.474293	26-Mar-2025 12:43:27	16963.245233	169.984933	none	NaN	NaN
105	12	57	37	kitchen	sun_agorklincwxrdtga.tif	17135.479990	17135.738530	17137.723867	26-Mar-2025 12:43:27	16963.245233	172.234758	none	NaN	NaN
105	12	58	11	kitchen	labelme_brsyyvweiuaazfr.tif	17137.730147	17137.988522	17139.974681	26-Mar-2025 12:43:27	16963.245233	174.484914	none	NaN	NaN
105	12	59	23	kitchen	sun_abrcnpqqhmjwekyf.tif	17139.988040	17140.246831	17142.232650	26-Mar-2025 12:43:27	16963.245233	176.742807	none	NaN	NaN
105	12	60	35	kitchen	sun_afuyedyxivkhecmu.tif	17142.246819	17142.505146	17144.491147	26-Mar-2025 12:43:27	16963.245233	179.001586	none	NaN	NaN
105	12	61	16	kitchen	sun_aapllqyqlykszopd.tif	17144.504672	17144.763564	17146.748604	26-Mar-2025 12:43:27	16963.245233	181.259439	none	NaN	NaN
105	12	62	24	kitchen	sun_acfmftudsenhrfhy.tif	17146.754628	17147.013453	17148.998482	26-Mar-2025 12:43:27	16963.245233	183.509395	none	NaN	NaN
105	12	63	50	kitchen	sun_amjjdeyrggfqgmom.tif	17149.004608	17149.262956	17151.248685	26-Mar-2025 12:43:27	16963.245233	185.759376	none	NaN	NaN
105	12	64	15	kitchen	sun_aamedkxepzlwuxes.tif	17151.254974	17151.513410	17153.498803	26-Mar-2025 12:43:27	16963.245233	188.009741	6	17154.562629	0.000000
105	12	65	49	kitchen	sun_akcjzhbbjlbogpdi.tif	17160.529607	17160.787752	17162.773506	26-Mar-2025 12:43:27	16963.245233	197.284374	none	NaN	NaN
105	12	66	48	kitchen	sun_akchetnepxlcxhsu.tif	17162.779492	17163.037720	17165.024006	26-Mar-2025 12:43:27	16963.245233	199.534260	none	NaN	NaN
105	12	67	52	kitchen	sun_auaiucuqpdausiva.tif	17165.037646	17165.295995	17167.281763	26-Mar-2025 12:43:27	16963.245233	201.792414	6	17168.575616	1.000000
105	12	68	19	kitchen	sun_abdenxonkemggwsq.tif	17174.304412	17174.562631	17176.548846	26-Mar-2025 12:43:27	16963.245233	211.059180	5	17178.282868	0.000000
105	12	69	32	kitchen	sun_aenotlpyftoioydp.tif	17183.571104	17183.829202	17185.815647	26-Mar-2025 12:43:27	16963.245233	220.325871	none	NaN	NaN
105	12	70	44	kitchen	sun_ahywdevtimnqcsln.tif	17185.820938	17186.079129	17188.065271	26-Mar-2025 12:43:27	16963.245233	222.575705	5	17189.026153	0.000000
105	12	71	28	kitchen	sun_adgqasybjyktddhj.tif	17195.095970	17195.354267	17197.340410	26-Mar-2025 12:43:27	16963.245233	231.850738	none	NaN	NaN
105	12	72	33	kitchen	sun_aeqdocilnnpuvuhx.tif	17197.354623	17197.612581	17199.599062	26-Mar-2025 12:43:27	16963.245233	234.109391	5	17200.907238	1.000000
105	12	73	26	kitchen	sun_acwjdupvyjsugpay.tif	17206.629181	17206.887895	17208.873645	26-Mar-2025 12:43:27	16963.245233	243.383948	none	NaN	NaN
105	12	74	27	kitchen	sun_acxkpeoqbwcxfvip.tif	17208.879559	17209.137868	17211.123645	26-Mar-2025 12:43:27	16963.245233	245.634326	none	NaN	NaN
105	12	75	18	kitchen	sun_aaxxjlsuzvqlgylf.tif	17211.129419	17211.387852	17213.373963	26-Mar-2025 12:43:27	16963.245233	247.884187	none	NaN	NaN
105	12	76	21	kitchen	sun_abftihopvusyfakt.tif	17213.379430	17213.637457	17215.623221	26-Mar-2025 12:43:27	16963.245233	250.134197	none	NaN	NaN
105	12	77	38	kitchen	sun_agubuxuukhzyzpdp.tif	17215.629452	17215.887810	17217.873702	26-Mar-2025 12:43:27	16963.245233	252.384220	none	NaN	NaN
105	12	78	31	kitchen	sun_aehawpgmrlhlvcow.tif	17217.878997	17218.137791	17220.123234	26-Mar-2025 12:43:27	16963.245233	254.633764	none	NaN	NaN
105	12	79	30	kitchen	sun_aegoxogugdkwpmpj.tif	17220.129005	17220.387263	17222.372890	26-Mar-2025 12:43:27	16963.245233	256.883772	none	NaN	NaN
105	12	80	47	kitchen	sun_ajkqhtgcbgpcwrwn.tif	17222.378892	17222.637372	17224.623344	26-Mar-2025 12:43:27	16963.245233	259.133660	none	NaN	NaN
105	12	81	13	kitchen	labelme_rykdqxenmhulbdn.tif	17224.628901	17224.887261	17226.873234	26-Mar-2025 12:43:27	16963.245233	261.383668	none	NaN	NaN
105	12	82	41	kitchen	sun_ahljzhgcdpomplvg.tif	17226.878880	17227.137186	17229.123346	26-Mar-2025 12:43:27	16963.245233	263.633647	none	NaN	NaN
105	12	83	25	kitchen	sun_acgtpgfybqjmzeyw.tif	17229.128920	17229.387248	17231.373269	26-Mar-2025 12:43:27	16963.245233	265.883687	none	NaN	NaN
105	12	84	60	kitchen	sun_azmutvzbxypaceni.tif	17231.378787	17231.637113	17233.623361	26-Mar-2025 12:43:27	16963.245233	268.133555	none	NaN	NaN
105	12	85	40	kitchen	sun_ahdycvpopffkzzsu.tif	17233.628929	17233.887265	17235.873204	26-Mar-2025 12:43:27	16963.245233	270.383697	6	17237.771960	1.000000
105	12	86	45	kitchen	sun_aixorpehvfykdynp.tif	17242.895519	17243.153770	17245.139972	26-Mar-2025 12:43:27	16963.245233	279.650286	none	NaN	NaN
105	12	87	55	kitchen	sun_avszsnwsbuqfgzbn.tif	17245.153871	17245.412099	17247.398330	26-Mar-2025 12:43:27	16963.245233	281.908639	none	NaN	NaN
105	12	88	12	kitchen	labelme_kxvouciolcpqplr.tif	17247.412128	17247.670348	17249.656285	26-Mar-2025 12:43:27	16963.245233	284.166896	5	17250.946393	1.000000
105	12	89	22	kitchen	sun_abpwyqmlzafvklqo.tif	17256.687463	17256.945818	17258.931945	26-Mar-2025 12:43:27	16963.245233	293.442230	none	NaN	NaN
105	12	90	54	kitchen	sun_auticobqsbwgoppi.tif	17258.937408	17259.195812	17261.182009	26-Mar-2025 12:43:27	16963.245233	295.692175	none	NaN	NaN
105	12	91	42	kitchen	sun_ahpczsiumwwocjkv.tif	17261.187386	17261.445785	17263.431908	26-Mar-2025 12:43:27	16963.245233	297.942154	none	NaN	NaN
105	12	92	34	kitchen	sun_aexklacwqwezaorf.tif	17263.445885	17263.704094	17265.689725	26-Mar-2025 12:43:27	16963.245233	300.200652	none	NaN	NaN
105	12	93	29	kitchen	sun_admlmbcdswaszruo.tif	17265.695302	17265.954075	17267.939602	26-Mar-2025 12:43:27	16963.245233	302.450069	none	NaN	NaN
105	12	94	57	kitchen	sun_axyyrmzcupyhlivc.tif	17267.945701	17268.203687	17270.189904	26-Mar-2025 12:43:27	16963.245233	304.700468	none	NaN	NaN
105	12	95	58	kitchen	sun_aymvwlarqodbwuoc.tif	17270.195679	17270.454047	17272.439543	26-Mar-2025 12:43:27	16963.245233	306.950447	5	17273.261488	1.000000
105	12	96	46	kitchen	sun_ajcbwwvdlsvjyzje.tif	17279.462358	17279.720674	17281.706716	26-Mar-2025 12:43:27	16963.245233	316.217125	6	17283.221653	0.000000
105	12	97	43	kitchen	sun_ahspylgoovwmwvgk.tif	17288.737218	17288.995083	17290.981680	26-Mar-2025 12:43:27	16963.245233	325.491986	none	NaN	NaN
105	12	98	36	kitchen	sun_aggjlwcdjsjcaemh.tif	17290.995171	17291.253490	17293.239542	26-Mar-2025 12:43:27	16963.245233	327.749938	none	NaN	NaN
105	12	99	53	kitchen	sun_aunzlwrbjumxhwdj.tif	17293.253349	17293.511740	17295.497396	26-Mar-2025 12:43:27	16963.245233	330.008117	none	NaN	NaN
105	12	100	51	kitchen	sun_aqeaevwwwjoqhzvl.tif	17295.503452	17295.761677	17297.747224	26-Mar-2025 12:43:27	16963.245233	332.258220	none	NaN	NaN
