subject	run	trial	texture	category	image	trialOnset	itiOnset	trialEnd	triggerDate	triggerTimeStamp	Onsets	responseKey	responseTime	accuracy
108	6	1	14	kitchen	sun_aadbddgrdsjugojn.tif	25559.473333	25559.731293	25561.717562	27-Mar-2025 16:50:04	25555.450678	4.022656	none	NaN	NaN
108	6	2	31	kitchen	sun_aehawpgmrlhlvcow.tif	25561.731269	25561.989599	25563.975352	27-Mar-2025 16:50:04	25555.450678	6.280591	5	25564.811321	1.000000
108	6	3	58	kitchen	sun_aymvwlarqodbwuoc.tif	25571.006184	25571.264513	25573.250434	27-Mar-2025 16:50:04	25555.450678	15.555507	none	NaN	NaN
108	6	4	15	kitchen	sun_aamedkxepzlwuxes.tif	25573.256126	25573.514481	25575.500680	27-Mar-2025 16:50:04	25555.450678	17.805448	none	NaN	NaN
108	6	5	37	kitchen	sun_agorklincwxrdtga.tif	25575.514492	25575.772812	25577.758496	27-Mar-2025 16:50:04	25555.450678	20.063815	none	NaN	NaN
108	6	6	40	kitchen	sun_ahdycvpopffkzzsu.tif	25577.764419	25578.022796	25580.008558	27-Mar-2025 16:50:04	25555.450678	22.313741	none	NaN	NaN
108	6	7	49	kitchen	sun_akcjzhbbjlbogpdi.tif	25580.014422	25580.272787	25582.258579	27-Mar-2025 16:50:04	25555.450678	24.563745	5	25582.885133	0.000000
108	6	8	43	kitchen	sun_ahspylgoovwmwvgk.tif	25589.289354	25589.547609	25591.533797	27-Mar-2025 16:50:04	25555.450678	33.838677	none	NaN	NaN
108	6	9	12	kitchen	labelme_kxvouciolcpqplr.tif	25591.539751	25591.797693	25593.783567	27-Mar-2025 16:50:04	25555.450678	36.089073	none	NaN	NaN
108	6	10	19	kitchen	sun_abdenxonkemggwsq.tif	25593.789290	25594.047660	25596.033814	27-Mar-2025 16:50:04	25555.450678	38.338612	none	NaN	NaN
108	6	11	48	kitchen	sun_akchetnepxlcxhsu.tif	25596.048017	25596.306399	25598.292029	27-Mar-2025 16:50:04	25555.450678	40.597339	5	25599.047647	0.000000
108	6	12	56	kitchen	sun_awcpdzzznmweyyhv.tif	25605.314829	25605.572585	25607.558586	27-Mar-2025 16:50:04	25555.450678	49.864151	none	NaN	NaN
108	6	13	59	kitchen	sun_aypmqwcualkenuoe.tif	25607.564170	25607.822548	25609.808554	27-Mar-2025 16:50:04	25555.450678	52.113493	none	NaN	NaN
108	6	14	50	kitchen	sun_amjjdeyrggfqgmom.tif	25609.814143	25610.073024	25612.058760	27-Mar-2025 16:50:04	25555.450678	54.363466	none	NaN	NaN
108	6	15	39	kitchen	sun_agzzivivdpnawacl.tif	25612.072522	25612.331320	25614.316366	27-Mar-2025 16:50:04	25555.450678	56.621845	none	NaN	NaN
108	6	16	53	kitchen	sun_aunzlwrbjumxhwdj.tif	25614.322380	25614.581278	25616.566532	27-Mar-2025 16:50:04	25555.450678	58.871703	none	NaN	NaN
108	6	17	28	kitchen	sun_adgqasybjyktddhj.tif	25616.572433	25616.831183	25618.816631	27-Mar-2025 16:50:04	25555.450678	61.121755	5	25619.454259	0.000000
108	6	18	18	kitchen	sun_aaxxjlsuzvqlgylf.tif	25625.839045	25626.097378	25628.083435	27-Mar-2025 16:50:04	25555.450678	70.388368	none	NaN	NaN
108	6	19	21	kitchen	sun_abftihopvusyfakt.tif	25628.088983	25628.347362	25630.333447	27-Mar-2025 16:50:04	25555.450678	72.638306	none	NaN	NaN
108	6	20	55	kitchen	sun_avszsnwsbuqfgzbn.tif	25630.338960	25630.597338	25632.583098	27-Mar-2025 16:50:04	25555.450678	74.888282	5	25633.176202	1.000000
108	6	21	23	kitchen	sun_abrcnpqqhmjwekyf.tif	25639.605601	25639.863930	25641.850159	27-Mar-2025 16:50:04	25555.450678	84.154924	none	NaN	NaN
108	6	22	17	kitchen	sun_aarfiyshqohlwkmo.tif	25641.855553	25642.113911	25644.099779	27-Mar-2025 16:50:04	25555.450678	86.404876	none	NaN	NaN
108	6	23	36	kitchen	sun_aggjlwcdjsjcaemh.tif	25644.105573	25644.363890	25646.349789	27-Mar-2025 16:50:04	25555.450678	88.654896	none	NaN	NaN
108	6	24	24	kitchen	sun_acfmftudsenhrfhy.tif	25646.355543	25646.613876	25648.599677	27-Mar-2025 16:50:04	25555.450678	90.904865	none	NaN	NaN
108	6	25	16	kitchen	sun_aapllqyqlykszopd.tif	25648.613859	25648.872124	25650.858368	27-Mar-2025 16:50:04	25555.450678	93.163181	none	NaN	NaN
108	6	26	45	kitchen	sun_aixorpehvfykdynp.tif	25650.872185	25651.130928	25653.116212	27-Mar-2025 16:50:04	25555.450678	95.421508	none	NaN	NaN
108	6	27	20	kitchen	sun_abdxkyyxwfskuaqb.tif	25653.122543	25653.380861	25655.367032	27-Mar-2025 16:50:04	25555.450678	97.671866	none	NaN	NaN
108	6	28	25	kitchen	sun_acgtpgfybqjmzeyw.tif	25655.372454	25655.630926	25657.616814	27-Mar-2025 16:50:04	25555.450678	99.921777	none	NaN	NaN
108	6	29	44	kitchen	sun_ahywdevtimnqcsln.tif	25657.630435	25657.889256	25659.874213	27-Mar-2025 16:50:04	25555.450678	102.179758	none	NaN	NaN
108	6	30	35	kitchen	sun_afuyedyxivkhecmu.tif	25659.880420	25660.139243	25662.124331	27-Mar-2025 16:50:04	25555.450678	104.429743	5	25662.778928	0.000000
108	6	31	57	kitchen	sun_axyyrmzcupyhlivc.tif	25669.146965	25669.405771	25671.390815	27-Mar-2025 16:50:04	25555.450678	113.696288	none	NaN	NaN
108	6	32	41	kitchen	sun_ahljzhgcdpomplvg.tif	25671.405340	25671.663620	25673.649943	27-Mar-2025 16:50:04	25555.450678	115.954663	none	NaN	NaN
108	6	33	46	kitchen	sun_ajcbwwvdlsvjyzje.tif	25673.655603	25673.914070	25675.899661	27-Mar-2025 16:50:04	25555.450678	118.204926	none	NaN	NaN
108	6	34	32	kitchen	sun_aenotlpyftoioydp.tif	25675.905241	25676.164030	25678.149022	27-Mar-2025 16:50:04	25555.450678	120.454564	none	NaN	NaN
108	6	35	52	kitchen	sun_auaiucuqpdausiva.tif	25678.163624	25678.422312	25680.407701	27-Mar-2025 16:50:04	25555.450678	122.712946	none	NaN	NaN
108	6	36	22	kitchen	sun_abpwyqmlzafvklqo.tif	25680.413588	25680.671913	25682.657598	27-Mar-2025 16:50:04	25555.450678	124.962911	none	NaN	NaN
108	6	37	34	kitchen	sun_aexklacwqwezaorf.tif	25682.663523	25682.921911	25684.907979	27-Mar-2025 16:50:04	25555.450678	127.212845	none	NaN	NaN
108	6	38	51	kitchen	sun_aqeaevwwwjoqhzvl.tif	25684.913533	25685.171890	25687.157831	27-Mar-2025 16:50:04	25555.450678	129.462856	5	25688.153418	0.000000
108	6	39	60	kitchen	sun_azmutvzbxypaceni.tif	25694.188460	25694.446803	25696.432455	27-Mar-2025 16:50:04	25555.450678	138.737783	none	NaN	NaN
108	6	40	33	kitchen	sun_aeqdocilnnpuvuhx.tif	25696.438444	25696.696784	25698.682867	27-Mar-2025 16:50:04	25555.450678	140.987766	6	25699.525064	1.000000
108	6	41	27	kitchen	sun_acxkpeoqbwcxfvip.tif	25705.713330	25705.971700	25707.957562	27-Mar-2025 16:50:04	25555.450678	150.262653	none	NaN	NaN
108	6	42	13	kitchen	labelme_rykdqxenmhulbdn.tif	25707.963342	25708.221689	25710.207882	27-Mar-2025 16:50:04	25555.450678	152.512664	6	25711.149870	0.000000
108	6	43	30	kitchen	sun_aegoxogugdkwpmpj.tif	25717.238547	25717.497039	25719.483114	27-Mar-2025 16:50:04	25555.450678	161.787870	none	NaN	NaN
108	6	44	29	kitchen	sun_admlmbcdswaszruo.tif	25719.488205	25719.746570	25721.732553	27-Mar-2025 16:50:04	25555.450678	164.037527	none	NaN	NaN
108	6	45	11	kitchen	labelme_brsyyvweiuaazfr.tif	25721.738593	25721.997015	25723.982847	27-Mar-2025 16:50:04	25555.450678	166.287915	none	NaN	NaN
108	6	46	47	kitchen	sun_ajkqhtgcbgpcwrwn.tif	25723.988541	25724.247025	25726.232844	27-Mar-2025 16:50:04	25555.450678	168.537863	none	NaN	NaN
108	6	47	38	kitchen	sun_agubuxuukhzyzpdp.tif	25726.246538	25726.504878	25728.491115	27-Mar-2025 16:50:04	25555.450678	170.795861	none	NaN	NaN
108	6	48	54	kitchen	sun_auticobqsbwgoppi.tif	25728.504850	25728.763619	25730.749247	27-Mar-2025 16:50:04	25555.450678	173.054173	none	NaN	NaN
108	6	49	26	kitchen	sun_acwjdupvyjsugpay.tif	25730.755152	25731.013151	25732.998934	27-Mar-2025 16:50:04	25555.450678	175.304475	5	25733.933652	1.000000
108	6	50	42	kitchen	sun_ahpczsiumwwocjkv.tif	25740.021385	25740.279746	25742.265337	27-Mar-2025 16:50:04	25555.450678	184.570708	none	NaN	NaN
108	6	51	55	kitchen	sun_avszsnwsbuqfgzbn.tif	25742.271391	25742.529731	25744.515919	27-Mar-2025 16:50:04	25555.450678	186.820714	none	NaN	NaN
108	6	52	42	kitchen	sun_ahpczsiumwwocjkv.tif	25744.521341	25744.779708	25746.765830	27-Mar-2025 16:50:04	25555.450678	189.070663	none	NaN	NaN
108	6	53	33	kitchen	sun_aeqdocilnnpuvuhx.tif	25746.771369	25747.029682	25749.015351	27-Mar-2025 16:50:04	25555.450678	191.320692	5	25749.731262	1.000000
108	6	54	44	kitchen	sun_ahywdevtimnqcsln.tif	25756.037938	25756.296276	25758.282078	27-Mar-2025 16:50:04	25555.450678	200.587261	none	NaN	NaN
108	6	55	51	kitchen	sun_aqeaevwwwjoqhzvl.tif	25758.287893	25758.546252	25760.531694	27-Mar-2025 16:50:04	25555.450678	202.837216	none	NaN	NaN
108	6	56	31	kitchen	sun_aehawpgmrlhlvcow.tif	25760.537875	25760.796229	25762.782092	27-Mar-2025 16:50:04	25555.450678	205.087197	none	NaN	NaN
108	6	57	37	kitchen	sun_agorklincwxrdtga.tif	25762.787884	25763.046220	25765.031985	27-Mar-2025 16:50:04	25555.450678	207.337207	none	NaN	NaN
108	6	58	39	kitchen	sun_agzzivivdpnawacl.tif	25765.037841	25765.296203	25767.282120	27-Mar-2025 16:50:04	25555.450678	209.587164	none	NaN	NaN
108	6	59	24	kitchen	sun_acfmftudsenhrfhy.tif	25767.287853	25767.546178	25769.531690	27-Mar-2025 16:50:04	25555.450678	211.837176	none	NaN	NaN
108	6	60	17	kitchen	sun_aarfiyshqohlwkmo.tif	25769.537833	25769.796160	25771.782176	27-Mar-2025 16:50:04	25555.450678	214.087156	none	NaN	NaN
108	6	61	13	kitchen	labelme_rykdqxenmhulbdn.tif	25771.788189	25772.046631	25774.032056	27-Mar-2025 16:50:04	25555.450678	216.337511	none	NaN	NaN
108	6	62	34	kitchen	sun_aexklacwqwezaorf.tif	25774.038089	25774.296511	25776.282610	27-Mar-2025 16:50:04	25555.450678	218.587411	none	NaN	NaN
108	6	63	53	kitchen	sun_aunzlwrbjumxhwdj.tif	25776.288089	25776.546116	25778.532139	27-Mar-2025 16:50:04	25555.450678	220.837411	6	25779.912325	0.000000
108	6	64	41	kitchen	sun_ahljzhgcdpomplvg.tif	25785.554758	25785.813170	25787.798891	27-Mar-2025 16:50:04	25555.450678	230.104080	none	NaN	NaN
108	6	65	12	kitchen	labelme_kxvouciolcpqplr.tif	25787.804295	25788.062689	25790.048719	27-Mar-2025 16:50:04	25555.450678	232.353618	none	NaN	NaN
108	6	66	56	kitchen	sun_awcpdzzznmweyyhv.tif	25790.054263	25790.312671	25792.298297	27-Mar-2025 16:50:04	25555.450678	234.603586	6	25793.676160	0.000000
108	6	67	18	kitchen	sun_aaxxjlsuzvqlgylf.tif	25799.320847	25799.579718	25801.564706	27-Mar-2025 16:50:04	25555.450678	243.870169	none	NaN	NaN
108	6	68	15	kitchen	sun_aamedkxepzlwuxes.tif	25801.570869	25801.829226	25803.815204	27-Mar-2025 16:50:04	25555.450678	246.120191	none	NaN	NaN
108	6	69	46	kitchen	sun_ajcbwwvdlsvjyzje.tif	25803.820812	25804.079204	25806.064608	27-Mar-2025 16:50:04	25555.450678	248.370135	none	NaN	NaN
108	6	70	60	kitchen	sun_azmutvzbxypaceni.tif	25806.070849	25806.329181	25808.315120	27-Mar-2025 16:50:04	25555.450678	250.620172	none	NaN	NaN
108	6	71	27	kitchen	sun_acxkpeoqbwcxfvip.tif	25808.320764	25808.579160	25810.565015	27-Mar-2025 16:50:04	25555.450678	252.870087	none	NaN	NaN
108	6	72	36	kitchen	sun_aggjlwcdjsjcaemh.tif	25810.570811	25810.829141	25812.815072	27-Mar-2025 16:50:04	25555.450678	255.120133	none	NaN	NaN
108	6	73	14	kitchen	sun_aadbddgrdsjugojn.tif	25812.820748	25813.079124	25815.065111	27-Mar-2025 16:50:04	25555.450678	257.370071	none	NaN	NaN
108	6	74	26	kitchen	sun_acwjdupvyjsugpay.tif	25815.070773	25815.329159	25817.315171	27-Mar-2025 16:50:04	25555.450678	259.620096	none	NaN	NaN
108	6	75	54	kitchen	sun_auticobqsbwgoppi.tif	25817.320729	25817.579089	25819.564932	27-Mar-2025 16:50:04	25555.450678	261.870051	none	NaN	NaN
108	6	76	45	kitchen	sun_aixorpehvfykdynp.tif	25819.570734	25819.829067	25821.815171	27-Mar-2025 16:50:04	25555.450678	264.120057	none	NaN	NaN
108	6	77	59	kitchen	sun_aypmqwcualkenuoe.tif	25821.820715	25822.079422	25824.064698	27-Mar-2025 16:50:04	25555.450678	266.370037	none	NaN	NaN
108	6	78	58	kitchen	sun_aymvwlarqodbwuoc.tif	25824.070706	25824.329030	25826.315287	27-Mar-2025 16:50:04	25555.450678	268.620029	none	NaN	NaN
108	6	79	50	kitchen	sun_amjjdeyrggfqgmom.tif	25826.329402	25826.587344	25828.573810	27-Mar-2025 16:50:04	25555.450678	270.878724	none	NaN	NaN
108	6	80	49	kitchen	sun_akcjzhbbjlbogpdi.tif	25828.587337	25828.845646	25830.831756	27-Mar-2025 16:50:04	25555.450678	273.136660	none	NaN	NaN
108	6	81	20	kitchen	sun_abdxkyyxwfskuaqb.tif	25830.837688	25831.095624	25833.081798	27-Mar-2025 16:50:04	25555.450678	275.387010	none	NaN	NaN
108	6	82	25	kitchen	sun_acgtpgfybqjmzeyw.tif	25833.087244	25833.346008	25835.331232	27-Mar-2025 16:50:04	25555.450678	277.636566	none	NaN	NaN
108	6	83	40	kitchen	sun_ahdycvpopffkzzsu.tif	25835.337122	25835.595616	25837.580885	27-Mar-2025 16:50:04	25555.450678	279.886444	none	NaN	NaN
108	6	84	47	kitchen	sun_ajkqhtgcbgpcwrwn.tif	25837.587600	25837.845969	25839.832111	27-Mar-2025 16:50:04	25555.450678	282.136923	6	25840.860979	1.000000
108	6	85	38	kitchen	sun_agubuxuukhzyzpdp.tif	25846.862151	25847.120521	25849.106616	27-Mar-2025 16:50:04	25555.450678	291.411473	none	NaN	NaN
108	6	86	30	kitchen	sun_aegoxogugdkwpmpj.tif	25849.112139	25849.370867	25851.356360	27-Mar-2025 16:50:04	25555.450678	293.661461	none	NaN	NaN
108	6	87	32	kitchen	sun_aenotlpyftoioydp.tif	25851.362144	25851.620847	25853.606450	27-Mar-2025 16:50:04	25555.450678	295.911466	none	NaN	NaN
108	6	88	52	kitchen	sun_auaiucuqpdausiva.tif	25853.612404	25853.870875	25855.856334	27-Mar-2025 16:50:04	25555.450678	298.161727	none	NaN	NaN
108	6	89	16	kitchen	sun_aapllqyqlykszopd.tif	25855.862456	25856.120810	25858.106382	27-Mar-2025 16:50:04	25555.450678	300.411778	none	NaN	NaN
108	6	90	28	kitchen	sun_adgqasybjyktddhj.tif	25858.112025	25858.370425	25860.356626	27-Mar-2025 16:50:04	25555.450678	302.661348	none	NaN	NaN
108	6	91	11	kitchen	labelme_brsyyvweiuaazfr.tif	25860.362013	25860.620413	25862.606223	27-Mar-2025 16:50:04	25555.450678	304.911336	none	NaN	NaN
108	6	92	29	kitchen	sun_admlmbcdswaszruo.tif	25862.620381	25862.878699	25864.864667	27-Mar-2025 16:50:04	25555.450678	307.169704	none	NaN	NaN
108	6	93	23	kitchen	sun_abrcnpqqhmjwekyf.tif	25864.870303	25865.128708	25867.114642	27-Mar-2025 16:50:04	25555.450678	309.419626	none	NaN	NaN
108	6	94	19	kitchen	sun_abdenxonkemggwsq.tif	25867.120335	25867.378666	25869.364356	27-Mar-2025 16:50:04	25555.450678	311.669658	none	NaN	NaN
108	6	95	48	kitchen	sun_akchetnepxlcxhsu.tif	25869.370320	25869.628643	25871.614791	27-Mar-2025 16:50:04	25555.450678	313.919643	none	NaN	NaN
108	6	96	57	kitchen	sun_axyyrmzcupyhlivc.tif	25871.620274	25871.878625	25873.864257	27-Mar-2025 16:50:04	25555.450678	316.169597	none	NaN	NaN
108	6	97	21	kitchen	sun_abftihopvusyfakt.tif	25873.870286	25874.128606	25876.114847	27-Mar-2025 16:50:04	25555.450678	318.419608	none	NaN	NaN
108	6	98	35	kitchen	sun_afuyedyxivkhecmu.tif	25876.120223	25876.378590	25878.364804	27-Mar-2025 16:50:04	25555.450678	320.669546	none	NaN	NaN
108	6	99	43	kitchen	sun_ahspylgoovwmwvgk.tif	25878.378572	25878.636908	25880.622616	27-Mar-2025 16:50:04	25555.450678	322.927894	none	NaN	NaN
108	6	100	22	kitchen	sun_abpwyqmlzafvklqo.tif	25880.636889	25880.895221	25882.880794	27-Mar-2025 16:50:04	25555.450678	325.186211	6	25883.829434	0.000000
