subject	run	trial	texture	category	image	trialOnset	itiOnset	trialEnd	triggerDate	triggerTimeStamp	Onsets	responseKey	responseTime	accuracy
108	8	1	16	kitchen	sun_aapllqyqlykszopd.tif	26418.948953	26419.207221	26421.192755	27-Mar-2025 17:04:23	26414.923087	4.025867	none	NaN	NaN
108	8	2	41	kitchen	sun_ahljzhgcdpomplvg.tif	26421.198968	26421.457313	26423.442829	27-Mar-2025 17:04:23	26414.923087	6.275881	none	NaN	NaN
108	8	3	54	kitchen	sun_auticobqsbwgoppi.tif	26423.448868	26423.707293	26425.692909	27-Mar-2025 17:04:23	26414.923087	8.525781	none	NaN	NaN
108	8	4	59	kitchen	sun_aypmqwcualkenuoe.tif	26425.698860	26425.957276	26427.942827	27-Mar-2025 17:04:23	26414.923087	10.775773	none	NaN	NaN
108	8	5	31	kitchen	sun_aehawpgmrlhlvcow.tif	26427.957257	26428.215592	26430.201266	27-Mar-2025 17:04:23	26414.923087	13.034171	none	NaN	NaN
108	8	6	51	kitchen	sun_aqeaevwwwjoqhzvl.tif	26430.207242	26430.465573	26432.451101	27-Mar-2025 17:04:23	26414.923087	15.284156	none	NaN	NaN
108	8	7	35	kitchen	sun_afuyedyxivkhecmu.tif	26432.457199	26432.715552	26434.700961	27-Mar-2025 17:04:23	26414.923087	17.534112	none	NaN	NaN
108	8	8	33	kitchen	sun_aeqdocilnnpuvuhx.tif	26434.715533	26434.973864	26436.959591	27-Mar-2025 17:04:23	26414.923087	19.792446	none	NaN	NaN
108	8	9	30	kitchen	sun_aegoxogugdkwpmpj.tif	26436.973848	26437.232195	26439.218160	27-Mar-2025 17:04:23	26414.923087	22.050762	5	26440.736519	0.000000
108	8	10	36	kitchen	sun_aggjlwcdjsjcaemh.tif	26446.248741	26446.507032	26448.492758	27-Mar-2025 17:04:23	26414.923087	31.325655	none	NaN	NaN
108	8	11	15	kitchen	sun_aamedkxepzlwuxes.tif	26448.498718	26448.757038	26450.742485	27-Mar-2025 17:04:23	26414.923087	33.575632	none	NaN	NaN
108	8	12	48	kitchen	sun_akchetnepxlcxhsu.tif	26450.748728	26451.007057	26452.993264	27-Mar-2025 17:04:23	26414.923087	35.825641	none	NaN	NaN
108	8	13	27	kitchen	sun_acxkpeoqbwcxfvip.tif	26452.998622	26453.257051	26455.242693	27-Mar-2025 17:04:23	26414.923087	38.075535	5	26456.527844	1.000000
108	8	14	46	kitchen	sun_ajcbwwvdlsvjyzje.tif	26462.265301	26462.523625	26464.509730	27-Mar-2025 17:04:23	26414.923087	47.342214	none	NaN	NaN
108	8	15	34	kitchen	sun_aexklacwqwezaorf.tif	26464.515298	26464.773622	26466.759431	27-Mar-2025 17:04:23	26414.923087	49.592211	none	NaN	NaN
108	8	16	29	kitchen	sun_admlmbcdswaszruo.tif	26466.765238	26467.023588	26469.009729	27-Mar-2025 17:04:23	26414.923087	51.842151	none	NaN	NaN
108	8	17	39	kitchen	sun_agzzivivdpnawacl.tif	26469.015183	26469.273571	26471.259151	27-Mar-2025 17:04:23	26414.923087	54.092096	none	NaN	NaN
108	8	18	42	kitchen	sun_ahpczsiumwwocjkv.tif	26471.265204	26471.523550	26473.509542	27-Mar-2025 17:04:23	26414.923087	56.342118	none	NaN	NaN
108	8	19	43	kitchen	sun_ahspylgoovwmwvgk.tif	26473.523544	26473.781885	26475.767625	27-Mar-2025 17:04:23	26414.923087	58.600458	none	NaN	NaN
108	8	20	37	kitchen	sun_agorklincwxrdtga.tif	26475.782242	26476.040200	26478.026433	27-Mar-2025 17:04:23	26414.923087	60.859155	6	26479.141897	1.000000
108	8	21	18	kitchen	sun_aaxxjlsuzvqlgylf.tif	26485.056771	26485.315104	26487.300741	27-Mar-2025 17:04:23	26414.923087	70.133684	none	NaN	NaN
108	8	22	26	kitchen	sun_acwjdupvyjsugpay.tif	26487.306720	26487.565092	26489.551142	27-Mar-2025 17:04:23	26414.923087	72.383634	none	NaN	NaN
108	8	23	17	kitchen	sun_aarfiyshqohlwkmo.tif	26489.556672	26489.815073	26491.801086	27-Mar-2025 17:04:23	26414.923087	74.633585	5	26493.210004	1.000000
108	8	24	47	kitchen	sun_ajkqhtgcbgpcwrwn.tif	26498.823694	26499.081654	26501.067881	27-Mar-2025 17:04:23	26414.923087	83.900607	none	NaN	NaN
108	8	25	60	kitchen	sun_azmutvzbxypaceni.tif	26501.073251	26501.331645	26503.317127	27-Mar-2025 17:04:23	26414.923087	86.150165	none	NaN	NaN
108	8	26	55	kitchen	sun_avszsnwsbuqfgzbn.tif	26503.323666	26503.581623	26505.567912	27-Mar-2025 17:04:23	26414.923087	88.400579	5	26506.573399	1.000000
108	8	27	20	kitchen	sun_abdxkyyxwfskuaqb.tif	26512.598152	26512.857040	26514.841941	27-Mar-2025 17:04:23	26414.923087	97.675065	none	NaN	NaN
108	8	28	19	kitchen	sun_abdenxonkemggwsq.tif	26514.848155	26515.106526	26517.092422	27-Mar-2025 17:04:23	26414.923087	99.925068	none	NaN	NaN
108	8	29	14	kitchen	sun_aadbddgrdsjugojn.tif	26517.098546	26517.356486	26519.343014	27-Mar-2025 17:04:23	26414.923087	102.175459	none	NaN	NaN
108	8	30	22	kitchen	sun_abpwyqmlzafvklqo.tif	26519.348455	26519.606731	26521.592888	27-Mar-2025 17:04:23	26414.923087	104.425368	6	26522.587680	1.000000
108	8	31	21	kitchen	sun_abftihopvusyfakt.tif	26528.614684	26528.873076	26530.859044	27-Mar-2025 17:04:23	26414.923087	113.691597	none	NaN	NaN
108	8	32	58	kitchen	sun_aymvwlarqodbwuoc.tif	26530.865048	26531.123443	26533.108810	27-Mar-2025 17:04:23	26414.923087	115.941961	none	NaN	NaN
108	8	33	52	kitchen	sun_auaiucuqpdausiva.tif	26533.123035	26533.381368	26535.367064	27-Mar-2025 17:04:23	26414.923087	118.199948	none	NaN	NaN
108	8	34	25	kitchen	sun_acgtpgfybqjmzeyw.tif	26535.373006	26535.631335	26537.616878	27-Mar-2025 17:04:23	26414.923087	120.449920	none	NaN	NaN
108	8	35	50	kitchen	sun_amjjdeyrggfqgmom.tif	26537.622967	26537.881328	26539.867085	27-Mar-2025 17:04:23	26414.923087	122.699881	none	NaN	NaN
108	8	36	24	kitchen	sun_acfmftudsenhrfhy.tif	26539.881309	26540.139630	26542.125211	27-Mar-2025 17:04:23	26414.923087	124.958222	none	NaN	NaN
108	8	37	23	kitchen	sun_abrcnpqqhmjwekyf.tif	26542.139986	26542.397951	26544.384387	27-Mar-2025 17:04:23	26414.923087	127.216900	none	NaN	NaN
108	8	38	44	kitchen	sun_ahywdevtimnqcsln.tif	26544.397932	26544.656257	26546.642709	27-Mar-2025 17:04:23	26414.923087	129.474845	6	26548.427903	1.000000
108	8	39	56	kitchen	sun_awcpdzzznmweyyhv.tif	26553.672857	26553.931579	26555.917098	27-Mar-2025 17:04:23	26414.923087	138.749771	5	26556.958487	1.000000
108	8	40	53	kitchen	sun_aunzlwrbjumxhwdj.tif	26562.947779	26563.206487	26565.191965	27-Mar-2025 17:04:23	26414.923087	148.024693	none	NaN	NaN
108	8	41	49	kitchen	sun_akcjzhbbjlbogpdi.tif	26565.197718	26565.456477	26567.442002	27-Mar-2025 17:04:23	26414.923087	150.274632	none	NaN	NaN
108	8	42	13	kitchen	labelme_rykdqxenmhulbdn.tif	26567.447686	26567.706068	26569.691501	27-Mar-2025 17:04:23	26414.923087	152.524599	none	NaN	NaN
108	8	43	11	kitchen	labelme_brsyyvweiuaazfr.tif	26569.697689	26569.956037	26571.941700	27-Mar-2025 17:04:23	26414.923087	154.774602	6	26573.750837	1.000000
108	8	44	38	kitchen	sun_agubuxuukhzyzpdp.tif	26578.964679	26579.222625	26581.209251	27-Mar-2025 17:04:23	26414.923087	164.041592	none	NaN	NaN
108	8	45	45	kitchen	sun_aixorpehvfykdynp.tif	26581.222623	26581.481358	26583.467347	27-Mar-2025 17:04:23	26414.923087	166.299536	none	NaN	NaN
108	8	46	12	kitchen	labelme_kxvouciolcpqplr.tif	26583.480941	26583.739256	26585.725501	27-Mar-2025 17:04:23	26414.923087	168.557854	none	NaN	NaN
108	8	47	28	kitchen	sun_adgqasybjyktddhj.tif	26585.739242	26585.997586	26587.983353	27-Mar-2025 17:04:23	26414.923087	170.816155	none	NaN	NaN
108	8	48	32	kitchen	sun_aenotlpyftoioydp.tif	26587.989595	26588.247520	26590.233734	27-Mar-2025 17:04:23	26414.923087	173.066508	none	NaN	NaN
108	8	49	40	kitchen	sun_ahdycvpopffkzzsu.tif	26590.239496	26590.497547	26592.483364	27-Mar-2025 17:04:23	26414.923087	175.316409	6	26594.269237	1.000000
108	8	50	57	kitchen	sun_axyyrmzcupyhlivc.tif	26599.506103	26599.764134	26601.750534	27-Mar-2025 17:04:23	26414.923087	184.583017	none	NaN	NaN
108	8	51	59	kitchen	sun_aypmqwcualkenuoe.tif	26601.756086	26602.014103	26604.000264	27-Mar-2025 17:04:23	26414.923087	186.832999	none	NaN	NaN
108	8	52	25	kitchen	sun_acgtpgfybqjmzeyw.tif	26604.005737	26604.264088	26606.250111	27-Mar-2025 17:04:23	26414.923087	189.082651	none	NaN	NaN
108	8	53	26	kitchen	sun_acwjdupvyjsugpay.tif	26606.255686	26606.514066	26608.500090	27-Mar-2025 17:04:23	26414.923087	191.332600	none	NaN	NaN
108	8	54	16	kitchen	sun_aapllqyqlykszopd.tif	26608.505655	26608.764444	26610.750131	27-Mar-2025 17:04:23	26414.923087	193.582569	none	NaN	NaN
108	8	55	57	kitchen	sun_axyyrmzcupyhlivc.tif	26610.755638	26611.014025	26612.999988	27-Mar-2025 17:04:23	26414.923087	195.832551	none	NaN	NaN
108	8	56	14	kitchen	sun_aadbddgrdsjugojn.tif	26613.006035	26613.264005	26615.250192	27-Mar-2025 17:04:23	26414.923087	198.082948	none	NaN	NaN
108	8	57	51	kitchen	sun_aqeaevwwwjoqhzvl.tif	26615.255575	26615.513998	26617.499352	27-Mar-2025 17:04:23	26414.923087	200.332488	none	NaN	NaN
108	8	58	29	kitchen	sun_admlmbcdswaszruo.tif	26617.505652	26617.764349	26619.749429	27-Mar-2025 17:04:23	26414.923087	202.582566	none	NaN	NaN
108	8	59	11	kitchen	labelme_brsyyvweiuaazfr.tif	26619.756027	26620.013949	26622.000623	27-Mar-2025 17:04:23	26414.923087	204.832941	5	26623.945767	1.000000
108	8	60	42	kitchen	sun_ahpczsiumwwocjkv.tif	26629.030914	26629.289251	26631.274783	27-Mar-2025 17:04:23	26414.923087	214.107827	none	NaN	NaN
108	8	61	13	kitchen	labelme_rykdqxenmhulbdn.tif	26631.280505	26631.538845	26633.525130	27-Mar-2025 17:04:23	26414.923087	216.357418	none	NaN	NaN
108	8	62	43	kitchen	sun_ahspylgoovwmwvgk.tif	26633.530443	26633.789213	26635.775025	27-Mar-2025 17:04:23	26414.923087	218.607356	6	26636.980924	1.000000
108	8	63	56	kitchen	sun_awcpdzzznmweyyhv.tif	26642.805426	26643.063738	26645.049579	27-Mar-2025 17:04:23	26414.923087	227.882339	none	NaN	NaN
108	8	64	33	kitchen	sun_aeqdocilnnpuvuhx.tif	26645.055380	26645.313729	26647.299141	27-Mar-2025 17:04:23	26414.923087	230.132293	none	NaN	NaN
108	8	65	20	kitchen	sun_abdxkyyxwfskuaqb.tif	26647.305381	26647.563717	26649.549746	27-Mar-2025 17:04:23	26414.923087	232.382295	5	26650.396393	1.000000
108	8	66	34	kitchen	sun_aexklacwqwezaorf.tif	26656.580300	26656.838641	26658.824387	27-Mar-2025 17:04:23	26414.923087	241.657213	none	NaN	NaN
108	8	67	28	kitchen	sun_adgqasybjyktddhj.tif	26658.830264	26659.088473	26661.074296	27-Mar-2025 17:04:23	26414.923087	243.907177	none	NaN	NaN
108	8	68	27	kitchen	sun_acxkpeoqbwcxfvip.tif	26661.080294	26661.338592	26663.324159	27-Mar-2025 17:04:23	26414.923087	246.157207	none	NaN	NaN
108	8	69	24	kitchen	sun_acfmftudsenhrfhy.tif	26663.330237	26663.588583	26665.574511	27-Mar-2025 17:04:23	26414.923087	248.407150	none	NaN	NaN
108	8	70	44	kitchen	sun_ahywdevtimnqcsln.tif	26665.580186	26665.838457	26667.824364	27-Mar-2025 17:04:23	26414.923087	250.657099	none	NaN	NaN
108	8	71	45	kitchen	sun_aixorpehvfykdynp.tif	26667.838489	26668.096864	26670.082808	27-Mar-2025 17:04:23	26414.923087	252.915402	none	NaN	NaN
108	8	72	23	kitchen	sun_abrcnpqqhmjwekyf.tif	26670.096857	26670.355559	26672.340673	27-Mar-2025 17:04:23	26414.923087	255.173770	none	NaN	NaN
108	8	73	38	kitchen	sun_agubuxuukhzyzpdp.tif	26672.346835	26672.605179	26674.590667	27-Mar-2025 17:04:23	26414.923087	257.423748	none	NaN	NaN
108	8	74	48	kitchen	sun_akchetnepxlcxhsu.tif	26674.596792	26674.855145	26676.840882	27-Mar-2025 17:04:23	26414.923087	259.673705	none	NaN	NaN
108	8	75	30	kitchen	sun_aegoxogugdkwpmpj.tif	26676.846799	26677.105124	26679.091118	27-Mar-2025 17:04:23	26414.923087	261.923713	none	NaN	NaN
108	8	76	15	kitchen	sun_aamedkxepzlwuxes.tif	26679.096732	26679.355109	26681.340585	27-Mar-2025 17:04:23	26414.923087	264.173645	none	NaN	NaN
108	8	77	53	kitchen	sun_aunzlwrbjumxhwdj.tif	26681.355091	26681.613427	26683.599627	27-Mar-2025 17:04:23	26414.923087	266.432004	6	26685.444920	1.000000
108	8	78	36	kitchen	sun_aggjlwcdjsjcaemh.tif	26690.630383	26690.888338	26692.874311	27-Mar-2025 17:04:23	26414.923087	275.707297	none	NaN	NaN
108	8	79	21	kitchen	sun_abftihopvusyfakt.tif	26692.879920	26693.138317	26695.124131	27-Mar-2025 17:04:23	26414.923087	277.956834	none	NaN	NaN
108	8	80	31	kitchen	sun_aehawpgmrlhlvcow.tif	26695.130279	26695.388301	26697.374056	27-Mar-2025 17:04:23	26414.923087	280.207193	none	NaN	NaN
108	8	81	46	kitchen	sun_ajcbwwvdlsvjyzje.tif	26697.379966	26697.638281	26699.623904	27-Mar-2025 17:04:23	26414.923087	282.456880	none	NaN	NaN
108	8	82	52	kitchen	sun_auaiucuqpdausiva.tif	26699.629887	26699.888202	26701.873939	27-Mar-2025 17:04:23	26414.923087	284.706801	none	NaN	NaN
108	8	83	12	kitchen	labelme_kxvouciolcpqplr.tif	26701.879914	26702.138623	26704.124484	27-Mar-2025 17:04:23	26414.923087	286.956828	none	NaN	NaN
108	8	84	58	kitchen	sun_aymvwlarqodbwuoc.tif	26704.130262	26704.388608	26706.374418	27-Mar-2025 17:04:23	26414.923087	289.207175	none	NaN	NaN
108	8	85	22	kitchen	sun_abpwyqmlzafvklqo.tif	26706.379876	26706.638203	26708.624482	27-Mar-2025 17:04:23	26414.923087	291.456789	none	NaN	NaN
108	8	86	37	kitchen	sun_agorklincwxrdtga.tif	26708.630126	26708.888179	26710.874175	27-Mar-2025 17:04:23	26414.923087	293.707039	5	26711.711484	1.000000
108	8	87	40	kitchen	sun_ahdycvpopffkzzsu.tif	26717.904705	26718.163109	26720.148942	27-Mar-2025 17:04:23	26414.923087	302.981618	none	NaN	NaN
108	8	88	32	kitchen	sun_aenotlpyftoioydp.tif	26720.154726	26720.413096	26722.398920	27-Mar-2025 17:04:23	26414.923087	305.231640	none	NaN	NaN
108	8	89	50	kitchen	sun_amjjdeyrggfqgmom.tif	26722.404734	26722.663079	26724.648559	27-Mar-2025 17:04:23	26414.923087	307.481647	none	NaN	NaN
108	8	90	17	kitchen	sun_aarfiyshqohlwkmo.tif	26724.654688	26724.913048	26726.899064	27-Mar-2025 17:04:23	26414.923087	309.731602	none	NaN	NaN
108	8	91	54	kitchen	sun_auticobqsbwgoppi.tif	26726.904612	26727.163038	26729.148779	27-Mar-2025 17:04:23	26414.923087	311.981526	none	NaN	NaN
108	8	92	60	kitchen	sun_azmutvzbxypaceni.tif	26729.154675	26729.413013	26731.399201	27-Mar-2025 17:04:23	26414.923087	314.231589	none	NaN	NaN
108	8	93	55	kitchen	sun_avszsnwsbuqfgzbn.tif	26731.404596	26731.662998	26733.648367	27-Mar-2025 17:04:23	26414.923087	316.481510	none	NaN	NaN
108	8	94	47	kitchen	sun_ajkqhtgcbgpcwrwn.tif	26733.654888	26733.912980	26735.898686	27-Mar-2025 17:04:23	26414.923087	318.731801	none	NaN	NaN
108	8	95	35	kitchen	sun_afuyedyxivkhecmu.tif	26735.904584	26736.163330	26738.148854	27-Mar-2025 17:04:23	26414.923087	320.981497	none	NaN	NaN
108	8	96	39	kitchen	sun_agzzivivdpnawacl.tif	26738.154557	26738.412922	26740.398391	27-Mar-2025 17:04:23	26414.923087	323.231470	none	NaN	NaN
108	8	97	41	kitchen	sun_ahljzhgcdpomplvg.tif	26740.404964	26740.663291	26742.649084	27-Mar-2025 17:04:23	26414.923087	325.481878	none	NaN	NaN
108	8	98	49	kitchen	sun_akcjzhbbjlbogpdi.tif	26742.654886	26742.913268	26744.899024	27-Mar-2025 17:04:23	26414.923087	327.731799	none	NaN	NaN
108	8	99	18	kitchen	sun_aaxxjlsuzvqlgylf.tif	26744.913281	26745.171583	26747.157715	27-Mar-2025 17:04:23	26414.923087	329.990195	none	NaN	NaN
108	8	100	19	kitchen	sun_abdenxonkemggwsq.tif	26747.171603	26747.429889	26749.416082	27-Mar-2025 17:04:23	26414.923087	332.248516	none	NaN	NaN
