subject	run	trial	texture	category	image	trialOnset	itiOnset	trialEnd	triggerDate	triggerTimeStamp	Onsets	responseKey	responseTime	accuracy
121	1	1	13	bathroom	sun_aavhrsfjbserjtht.tif	9556.170479	9556.428812	9558.414709	14-May-2025 14:49:30	9552.115180	4.055300	none	NaN	NaN
121	1	2	49	bathroom	sun_asfwthctfqerjvxr.tif	9558.428795	9558.687123	9560.672881	14-May-2025 14:49:30	9552.115180	6.313615	none	NaN	NaN
121	1	3	25	bathroom	sun_agyqfjcfkdcydepw.tif	9560.687112	9560.945444	9562.931186	14-May-2025 14:49:30	9552.115180	8.571933	5	9563.977100	1.000000
121	1	4	38	bathroom	sun_anhioqovhscjqqwb.tif	9569.978698	9570.237461	9572.222951	14-May-2025 14:49:30	9552.115180	17.863519	none	NaN	NaN
121	1	5	37	bathroom	sun_amzlamotzwfkwjco.tif	9572.237024	9572.495342	9574.480942	14-May-2025 14:49:30	9552.115180	20.121844	none	NaN	NaN
121	1	6	16	bathroom	sun_acduarbnmmoglmiv.tif	9574.495700	9574.754047	9576.739808	14-May-2025 14:49:30	9552.115180	22.380520	none	NaN	NaN
121	1	7	41	bathroom	sun_aoybiabnpadelefl.tif	9576.745689	9577.004012	9578.989779	14-May-2025 14:49:30	9552.115180	24.630510	none	NaN	NaN
121	1	8	55	bathroom	sun_avhrdrntsqrjzccq.tif	9578.995271	9579.245354	9581.239457	14-May-2025 14:49:30	9552.115180	26.880091	none	NaN	NaN
121	1	9	60	bathroom	sun_azqyogdvyhahyram.tif	9581.245545	9581.503611	9583.489453	14-May-2025 14:49:30	9552.115180	29.130365	5	9584.952433	1.000000
121	1	10	29	bathroom	sun_ahqjwnzgolcaoidx.tif	9590.520212	9590.778569	9592.764703	14-May-2025 14:49:30	9552.115180	38.405032	none	NaN	NaN
121	1	11	15	bathroom	sun_abjtwfukuwddzted.tif	9592.770168	9593.028518	9595.014268	14-May-2025 14:49:30	9552.115180	40.654988	none	NaN	NaN
121	1	12	39	bathroom	sun_anryaplzeujmzfkd.tif	9595.020557	9595.278963	9597.264923	14-May-2025 14:49:30	9552.115180	42.905377	5	9598.212908	1.000000
121	1	13	17	bathroom	sun_acegryoqftbzowsg.tif	9604.295063	9604.553403	9606.539414	14-May-2025 14:49:30	9552.115180	52.179883	none	NaN	NaN
121	1	14	30	bathroom	sun_ajlawzvmubibwbpy.tif	9606.545046	9606.803395	9608.789144	14-May-2025 14:49:30	9552.115180	54.429866	none	NaN	NaN
121	1	15	23	bathroom	sun_aghyqhbptboemmoq.tif	9608.795020	9609.053360	9611.039216	14-May-2025 14:49:30	9552.115180	56.679841	none	NaN	NaN
121	1	16	53	bathroom	sun_ausgutylgojavyoq.tif	9611.044958	9611.303384	9613.288741	14-May-2025 14:49:30	9552.115180	58.929779	none	NaN	NaN
121	1	17	59	bathroom	sun_axyrejkiiaqiurjk.tif	9613.294980	9613.553319	9615.538894	14-May-2025 14:49:30	9552.115180	61.179801	none	NaN	NaN
121	1	18	58	bathroom	sun_axxbkopsgyouuebh.tif	9615.544970	9615.803302	9617.789536	14-May-2025 14:49:30	9552.115180	63.429791	none	NaN	NaN
121	1	19	14	bathroom	sun_abapwbhyhkfixyex.tif	9617.795293	9618.053289	9620.039321	14-May-2025 14:49:30	9552.115180	65.680113	none	NaN	NaN
121	1	20	33	bathroom	sun_aljolscmmzydegqp.tif	9620.044891	9620.303259	9622.289495	14-May-2025 14:49:30	9552.115180	67.929711	none	NaN	NaN
121	1	21	46	bathroom	sun_apmqjbnwghzuhhzh.tif	9622.303253	9622.561573	9624.547474	14-May-2025 14:49:30	9552.115180	70.188074	none	NaN	NaN
121	1	22	18	bathroom	sun_acgyywnybuveqsro.tif	9624.561556	9624.819897	9626.805789	14-May-2025 14:49:30	9552.115180	72.446377	none	NaN	NaN
121	1	23	19	bathroom	sun_aclfzgynxzxlbepz.tif	9626.811543	9627.069866	9629.055586	14-May-2025 14:49:30	9552.115180	74.696363	6	9631.013534	1.000000
121	1	24	11	bathroom	labelme_sfxiulhjbhlyiyt.tif	9636.086832	9636.345175	9638.331088	14-May-2025 14:49:30	9552.115180	83.971652	5	9639.445336	1.000000
121	1	25	27	bathroom	sun_ahcvzmoyaycdoftf.tif	9645.361643	9645.619711	9647.606007	14-May-2025 14:49:30	9552.115180	93.246463	none	NaN	NaN
121	1	26	21	bathroom	sun_aggnnqpdorgxpvce.tif	9647.611585	9647.869692	9649.855903	14-May-2025 14:49:30	9552.115180	95.496406	none	NaN	NaN
121	1	27	42	bathroom	sun_apeeialkgkuxddgh.tif	9649.861687	9650.120034	9652.106127	14-May-2025 14:49:30	9552.115180	97.746507	5	9653.233708	0.000000
121	1	28	56	bathroom	sun_awnqiikzaispgmwo.tif	9659.127845	9659.386630	9661.371949	14-May-2025 14:49:30	9552.115180	107.012666	none	NaN	NaN
121	1	29	44	bathroom	sun_apkruvsevgegsdwp.tif	9661.386227	9661.644561	9663.630411	14-May-2025 14:49:30	9552.115180	109.271047	none	NaN	NaN
121	1	30	20	bathroom	sun_afcoljnjfoxjtgja.tif	9663.636187	9663.894429	9665.879997	14-May-2025 14:49:30	9552.115180	111.521008	none	NaN	NaN
121	1	31	28	bathroom	sun_ahijqszoswveeyji.tif	9665.886140	9666.144481	9668.130299	14-May-2025 14:49:30	9552.115180	113.770960	none	NaN	NaN
121	1	32	26	bathroom	sun_ahaulkltgpkeeemi.tif	9668.144376	9668.402765	9670.388644	14-May-2025 14:49:30	9552.115180	116.029196	5	9671.637297	1.000000
121	1	33	22	bathroom	sun_agguqiubmwhqqunb.tif	9677.419410	9677.677614	9679.663738	14-May-2025 14:49:30	9552.115180	125.304230	none	NaN	NaN
121	1	34	47	bathroom	sun_apynckhmoftszqoq.tif	9679.669741	9679.927604	9681.914022	14-May-2025 14:49:30	9552.115180	127.554561	none	NaN	NaN
121	1	35	45	bathroom	sun_apkxzenqapsujocq.tif	9681.927625	9682.186005	9684.172170	14-May-2025 14:49:30	9552.115180	129.812446	none	NaN	NaN
121	1	36	34	bathroom	sun_alkosphxlxwjwgjd.tif	9684.177520	9684.436020	9686.421643	14-May-2025 14:49:30	9552.115180	132.062340	none	NaN	NaN
121	1	37	12	bathroom	sun_aapitsgbtktqubfy.tif	9686.427573	9686.685945	9688.671677	14-May-2025 14:49:30	9552.115180	134.312393	none	NaN	NaN
121	1	38	52	bathroom	sun_aunuadmjocsddsrl.tif	9688.685800	9688.944184	9690.930130	14-May-2025 14:49:30	9552.115180	136.570620	none	NaN	NaN
121	1	39	50	bathroom	sun_aspsyogrekjtfozg.tif	9690.944691	9691.203016	9693.189091	14-May-2025 14:49:30	9552.115180	138.829512	none	NaN	NaN
121	1	40	54	bathroom	sun_auzqhkafidnkrwmo.tif	9693.203005	9693.461332	9695.447391	14-May-2025 14:49:30	9552.115180	141.087826	none	NaN	NaN
121	1	41	31	bathroom	sun_akiytfaagpdsphgz.tif	9695.452881	9695.710934	9697.697263	14-May-2025 14:49:30	9552.115180	143.337701	none	NaN	NaN
121	1	42	48	bathroom	sun_aqrpegblszgcoujh.tif	9697.702495	9697.960915	9699.946934	14-May-2025 14:49:30	9552.115180	145.587316	none	NaN	NaN
121	1	43	35	bathroom	sun_alotolagknyrgtsk.tif	9699.960909	9700.219240	9702.204972	14-May-2025 14:49:30	9552.115180	147.845729	6	9704.105988	1.000000
121	1	44	24	bathroom	sun_agrwbmhcpmfuwmsg.tif	9709.227448	9709.486193	9711.471278	14-May-2025 14:49:30	9552.115180	157.112268	none	NaN	NaN
121	1	45	40	bathroom	sun_aofnryafpsjimzsb.tif	9711.477810	9711.736167	9713.721687	14-May-2025 14:49:30	9552.115180	159.362631	none	NaN	NaN
121	1	46	36	bathroom	sun_ambriybtogmepttm.tif	9713.727433	9713.986156	9715.971591	14-May-2025 14:49:30	9552.115180	161.612253	none	NaN	NaN
121	1	47	57	bathroom	sun_axldvoqbuvuggfmq.tif	9715.977374	9716.236115	9718.221968	14-May-2025 14:49:30	9552.115180	163.862195	none	NaN	NaN
121	1	48	43	bathroom	sun_apjevzvycyhuqghb.tif	9718.227734	9718.485680	9720.471903	14-May-2025 14:49:30	9552.115180	166.112554	none	NaN	NaN
121	1	49	32	bathroom	sun_aleqenyvunhactkl.tif	9720.485544	9720.743932	9722.729774	14-May-2025 14:49:30	9552.115180	168.370365	5	9723.711620	1.000000
121	1	50	51	bathroom	sun_atstyziqcmkahyxk.tif	9729.752261	9730.010600	9731.996483	14-May-2025 14:49:30	9552.115180	177.637081	none	NaN	NaN
121	1	51	59	bathroom	sun_axyrejkiiaqiurjk.tif	9732.010411	9732.268758	9734.254296	14-May-2025 14:49:30	9552.115180	179.895231	5	9735.231310	0.000000
121	1	52	11	bathroom	labelme_sfxiulhjbhlyiyt.tif	9741.277118	9741.535432	9743.521001	14-May-2025 14:49:30	9552.115180	189.161938	none	NaN	NaN
121	1	53	25	bathroom	sun_agyqfjcfkdcydepw.tif	9743.535496	9743.793768	9745.779457	14-May-2025 14:49:30	9552.115180	191.420317	none	NaN	NaN
121	1	54	16	bathroom	sun_acduarbnmmoglmiv.tif	9745.785341	9746.043666	9748.029869	14-May-2025 14:49:30	9552.115180	193.670161	none	NaN	NaN
121	1	55	21	bathroom	sun_aggnnqpdorgxpvce.tif	9748.043778	9748.302031	9750.287756	14-May-2025 14:49:30	9552.115180	195.928599	none	NaN	NaN
121	1	56	51	bathroom	sun_atstyziqcmkahyxk.tif	9750.293770	9750.552486	9752.538184	14-May-2025 14:49:30	9552.115180	198.178590	none	NaN	NaN
121	1	57	32	bathroom	sun_aleqenyvunhactkl.tif	9752.543701	9752.802081	9754.788023	14-May-2025 14:49:30	9552.115180	200.428521	none	NaN	NaN
121	1	58	33	bathroom	sun_aljolscmmzydegqp.tif	9754.793702	9755.052067	9757.037850	14-May-2025 14:49:30	9552.115180	202.678523	6	9759.533903	1.000000
121	1	59	18	bathroom	sun_acgyywnybuveqsro.tif	9764.077451	9764.335781	9766.321496	14-May-2025 14:49:30	9552.115180	211.962272	none	NaN	NaN
121	1	60	36	bathroom	sun_ambriybtogmepttm.tif	9766.327904	9766.585670	9768.572399	14-May-2025 14:49:30	9552.115180	214.212725	none	NaN	NaN
121	1	61	13	bathroom	sun_aavhrsfjbserjtht.tif	9768.576842	9768.835276	9770.820712	14-May-2025 14:49:30	9552.115180	216.461663	none	NaN	NaN
121	1	62	56	bathroom	sun_awnqiikzaispgmwo.tif	9770.827277	9771.085721	9773.071439	14-May-2025 14:49:30	9552.115180	218.712097	none	NaN	NaN
121	1	63	14	bathroom	sun_abapwbhyhkfixyex.tif	9773.076831	9773.335699	9775.320761	14-May-2025 14:49:30	9552.115180	220.961652	none	NaN	NaN
121	1	64	45	bathroom	sun_apkxzenqapsujocq.tif	9775.326852	9775.585224	9777.570897	14-May-2025 14:49:30	9552.115180	223.211673	6	9780.165195	1.000000
121	1	65	38	bathroom	sun_anhioqovhscjqqwb.tif	9784.601783	9784.860109	9786.845764	14-May-2025 14:49:30	9552.115180	232.486603	none	NaN	NaN
121	1	66	44	bathroom	sun_apkruvsevgegsdwp.tif	9786.851753	9787.110091	9789.096263	14-May-2025 14:49:30	9552.115180	234.736573	none	NaN	NaN
121	1	67	35	bathroom	sun_alotolagknyrgtsk.tif	9789.101723	9789.360086	9791.345868	14-May-2025 14:49:30	9552.115180	236.986543	none	NaN	NaN
121	1	68	55	bathroom	sun_avhrdrntsqrjzccq.tif	9791.351697	9791.610051	9793.596221	14-May-2025 14:49:30	9552.115180	239.236517	none	NaN	NaN
121	1	69	22	bathroom	sun_agguqiubmwhqqunb.tif	9793.610023	9793.868368	9795.854352	14-May-2025 14:49:30	9552.115180	241.494844	none	NaN	NaN
121	1	70	24	bathroom	sun_agrwbmhcpmfuwmsg.tif	9795.860017	9796.118346	9798.104165	14-May-2025 14:49:30	9552.115180	243.744837	none	NaN	NaN
121	1	71	47	bathroom	sun_apynckhmoftszqoq.tif	9798.109937	9798.368327	9800.354366	14-May-2025 14:49:30	9552.115180	245.994758	none	NaN	NaN
121	1	72	53	bathroom	sun_ausgutylgojavyoq.tif	9800.368305	9800.626630	9802.612334	14-May-2025 14:49:30	9552.115180	248.253125	none	NaN	NaN
121	1	73	15	bathroom	sun_abjtwfukuwddzted.tif	9802.618285	9802.876612	9804.862734	14-May-2025 14:49:30	9552.115180	250.503105	none	NaN	NaN
121	1	74	28	bathroom	sun_ahijqszoswveeyji.tif	9804.868206	9805.126586	9807.112721	14-May-2025 14:49:30	9552.115180	252.753026	5	9808.199270	1.000000
121	1	75	26	bathroom	sun_ahaulkltgpkeeemi.tif	9814.143549	9814.401986	9816.387755	14-May-2025 14:49:30	9552.115180	262.028369	none	NaN	NaN
121	1	76	58	bathroom	sun_axxbkopsgyouuebh.tif	9816.393437	9816.651481	9818.637503	14-May-2025 14:49:30	9552.115180	264.278258	none	NaN	NaN
121	1	77	17	bathroom	sun_acegryoqftbzowsg.tif	9818.643093	9818.901478	9820.887069	14-May-2025 14:49:30	9552.115180	266.527914	none	NaN	NaN
121	1	78	54	bathroom	sun_auzqhkafidnkrwmo.tif	9820.901472	9821.159783	9823.146044	14-May-2025 14:49:30	9552.115180	268.786292	none	NaN	NaN
121	1	79	30	bathroom	sun_ajlawzvmubibwbpy.tif	9823.151364	9823.409764	9825.395432	14-May-2025 14:49:30	9552.115180	271.036184	none	NaN	NaN
121	1	80	19	bathroom	sun_aclfzgynxzxlbepz.tif	9825.401757	9825.660112	9827.645718	14-May-2025 14:49:30	9552.115180	273.286578	none	NaN	NaN
121	1	81	60	bathroom	sun_azqyogdvyhahyram.tif	9827.651388	9827.910184	9829.895459	14-May-2025 14:49:30	9552.115180	275.536209	5	9831.493588	0.000000
121	1	82	50	bathroom	sun_aspsyogrekjtfozg.tif	9836.917968	9837.176762	9839.162548	14-May-2025 14:49:30	9552.115180	284.802788	none	NaN	NaN
121	1	83	42	bathroom	sun_apeeialkgkuxddgh.tif	9839.167849	9839.426699	9841.411695	14-May-2025 14:49:30	9552.115180	287.052670	none	NaN	NaN
121	1	84	49	bathroom	sun_asfwthctfqerjvxr.tif	9841.417913	9841.676241	9843.661907	14-May-2025 14:49:30	9552.115180	289.302734	none	NaN	NaN
121	1	85	27	bathroom	sun_ahcvzmoyaycdoftf.tif	9843.667884	9843.926228	9845.912221	14-May-2025 14:49:30	9552.115180	291.552705	none	NaN	NaN
121	1	86	12	bathroom	sun_aapitsgbtktqubfy.tif	9845.917803	9846.176205	9848.162228	14-May-2025 14:49:30	9552.115180	293.802623	none	NaN	NaN
121	1	87	23	bathroom	sun_aghyqhbptboemmoq.tif	9848.167806	9848.426182	9850.412160	14-May-2025 14:49:30	9552.115180	296.052626	none	NaN	NaN
121	1	88	20	bathroom	sun_afcoljnjfoxjtgja.tif	9850.417780	9850.676160	9852.662038	14-May-2025 14:49:30	9552.115180	298.302601	none	NaN	NaN
121	1	89	40	bathroom	sun_aofnryafpsjimzsb.tif	9852.667762	9852.926134	9854.911647	14-May-2025 14:49:30	9552.115180	300.552582	none	NaN	NaN
121	1	90	39	bathroom	sun_anryaplzeujmzfkd.tif	9854.917765	9855.176113	9857.161821	14-May-2025 14:49:30	9552.115180	302.802585	none	NaN	NaN
121	1	91	43	bathroom	sun_apjevzvycyhuqghb.tif	9857.167754	9857.426101	9859.411936	14-May-2025 14:49:30	9552.115180	305.052574	none	NaN	NaN
121	1	92	34	bathroom	sun_alkosphxlxwjwgjd.tif	9859.417731	9859.676074	9861.661664	14-May-2025 14:49:30	9552.115180	307.302552	none	NaN	NaN
121	1	93	41	bathroom	sun_aoybiabnpadelefl.tif	9861.667711	9861.926055	9863.912183	14-May-2025 14:49:30	9552.115180	309.552532	5	9864.915972	0.000000
121	1	94	46	bathroom	sun_apmqjbnwghzuhhzh.tif	9870.942654	9871.200982	9873.186919	14-May-2025 14:49:30	9552.115180	318.827474	none	NaN	NaN
121	1	95	57	bathroom	sun_axldvoqbuvuggfmq.tif	9873.192963	9873.450960	9875.437300	14-May-2025 14:49:30	9552.115180	321.077783	none	NaN	NaN
121	1	96	31	bathroom	sun_akiytfaagpdsphgz.tif	9875.443008	9875.701406	9877.687006	14-May-2025 14:49:30	9552.115180	323.327829	none	NaN	NaN
121	1	97	37	bathroom	sun_amzlamotzwfkwjco.tif	9877.692587	9877.951290	9879.936536	14-May-2025 14:49:30	9552.115180	325.577408	none	NaN	NaN
121	1	98	29	bathroom	sun_ahqjwnzgolcaoidx.tif	9879.942832	9880.200848	9882.187351	14-May-2025 14:49:30	9552.115180	327.827653	none	NaN	NaN
121	1	99	52	bathroom	sun_aunuadmjocsddsrl.tif	9882.201360	9882.459576	9884.445665	14-May-2025 14:49:30	9552.115180	330.086180	none	NaN	NaN
121	1	100	48	bathroom	sun_aqrpegblszgcoujh.tif	9884.451151	9884.709787	9886.695647	14-May-2025 14:49:30	9552.115180	332.335971	none	NaN	NaN
