subject	run	trial	texture	category	image	trialOnset	itiOnset	trialEnd	triggerDate	triggerTimeStamp	Onsets	responseKey	responseTime	accuracy
121	6	1	14	kitchen	sun_aadbddgrdsjugojn.tif	11637.836426	11638.094643	11640.080966	14-May-2025 15:24:11	11633.810805	4.025621	none	NaN	NaN
121	6	2	31	kitchen	sun_aehawpgmrlhlvcow.tif	11640.094248	11640.352464	11642.338691	14-May-2025 15:24:11	11633.810805	6.283444	5	11643.519569	1.000000
121	6	3	58	kitchen	sun_aymvwlarqodbwuoc.tif	11649.369179	11649.627397	11651.612991	14-May-2025 15:24:11	11633.810805	15.558375	none	NaN	NaN
121	6	4	15	kitchen	sun_aamedkxepzlwuxes.tif	11651.619013	11651.877299	11653.863333	14-May-2025 15:24:11	11633.810805	17.808208	none	NaN	NaN
121	6	5	37	kitchen	sun_agorklincwxrdtga.tif	11653.877373	11654.135685	11656.121499	14-May-2025 15:24:11	11633.810805	20.066569	none	NaN	NaN
121	6	6	40	kitchen	sun_ahdycvpopffkzzsu.tif	11656.135649	11656.394080	11658.379487	14-May-2025 15:24:11	11633.810805	22.324844	none	NaN	NaN
121	6	7	49	kitchen	sun_akcjzhbbjlbogpdi.tif	11658.385734	11658.643995	11660.629690	14-May-2025 15:24:11	11633.810805	24.574929	5	11661.523452	0.000000
121	6	8	43	kitchen	sun_ahspylgoovwmwvgk.tif	11667.660509	11667.918872	11669.904374	14-May-2025 15:24:11	11633.810805	33.849704	none	NaN	NaN
121	6	9	12	kitchen	labelme_kxvouciolcpqplr.tif	11669.918904	11670.177827	11672.162732	14-May-2025 15:24:11	11633.810805	36.108100	none	NaN	NaN
121	6	10	19	kitchen	sun_abdenxonkemggwsq.tif	11672.169469	11672.427798	11674.413482	14-May-2025 15:24:11	11633.810805	38.358664	none	NaN	NaN
121	6	11	48	kitchen	sun_akchetnepxlcxhsu.tif	11674.418916	11674.677782	11676.663014	14-May-2025 15:24:11	11633.810805	40.608112	5	11678.108191	0.000000
121	6	12	56	kitchen	sun_awcpdzzznmweyyhv.tif	11683.685977	11683.943909	11685.929885	14-May-2025 15:24:11	11633.810805	49.875172	none	NaN	NaN
121	6	13	59	kitchen	sun_aypmqwcualkenuoe.tif	11685.935518	11686.193892	11688.179420	14-May-2025 15:24:11	11633.810805	52.124714	none	NaN	NaN
121	6	14	50	kitchen	sun_amjjdeyrggfqgmom.tif	11688.185483	11688.443865	11690.429616	14-May-2025 15:24:11	11633.810805	54.374678	none	NaN	NaN
121	6	15	39	kitchen	sun_agzzivivdpnawacl.tif	11690.435897	11690.694258	11692.680046	14-May-2025 15:24:11	11633.810805	56.625092	none	NaN	NaN
121	6	16	53	kitchen	sun_aunzlwrbjumxhwdj.tif	11692.685816	11692.944300	11694.929843	14-May-2025 15:24:11	11633.810805	58.875011	none	NaN	NaN
121	6	17	28	kitchen	sun_adgqasybjyktddhj.tif	11694.935482	11695.194242	11697.179648	14-May-2025 15:24:11	11633.810805	61.124677	5	11698.243568	0.000000
121	6	18	18	kitchen	sun_aaxxjlsuzvqlgylf.tif	11704.210286	11704.468585	11706.454342	14-May-2025 15:24:11	11633.810805	70.399481	none	NaN	NaN
121	6	19	21	kitchen	sun_abftihopvusyfakt.tif	11706.460264	11706.718687	11708.704060	14-May-2025 15:24:11	11633.810805	72.649459	none	NaN	NaN
121	6	20	55	kitchen	sun_avszsnwsbuqfgzbn.tif	11708.710169	11708.968574	11710.954724	14-May-2025 15:24:11	11633.810805	74.899364	5	11711.849886	1.000000
121	6	21	23	kitchen	sun_abrcnpqqhmjwekyf.tif	11717.985262	11718.243437	11720.229480	14-May-2025 15:24:11	11633.810805	84.174457	none	NaN	NaN
121	6	22	17	kitchen	sun_aarfiyshqohlwkmo.tif	11720.235130	11720.493595	11722.479216	14-May-2025 15:24:11	11633.810805	86.424326	none	NaN	NaN
121	6	23	36	kitchen	sun_aggjlwcdjsjcaemh.tif	11722.485092	11722.743488	11724.729267	14-May-2025 15:24:11	11633.810805	88.674287	none	NaN	NaN
121	6	24	24	kitchen	sun_acfmftudsenhrfhy.tif	11724.743454	11725.001775	11726.987499	14-May-2025 15:24:11	11633.810805	90.932649	none	NaN	NaN
121	6	25	16	kitchen	sun_aapllqyqlykszopd.tif	11726.993383	11727.251730	11729.237511	14-May-2025 15:24:11	11633.810805	93.182578	none	NaN	NaN
121	6	26	45	kitchen	sun_aixorpehvfykdynp.tif	11729.243335	11729.501782	11731.487288	14-May-2025 15:24:11	11633.810805	95.432530	none	NaN	NaN
121	6	27	20	kitchen	sun_abdxkyyxwfskuaqb.tif	11731.493477	11731.752317	11733.737592	14-May-2025 15:24:11	11633.810805	97.682672	none	NaN	NaN
121	6	28	25	kitchen	sun_acgtpgfybqjmzeyw.tif	11733.743488	11734.002193	11735.988044	14-May-2025 15:24:11	11633.810805	99.932683	none	NaN	NaN
121	6	29	44	kitchen	sun_ahywdevtimnqcsln.tif	11735.993414	11736.251816	11738.237461	14-May-2025 15:24:11	11633.810805	102.182609	none	NaN	NaN
121	6	30	35	kitchen	sun_afuyedyxivkhecmu.tif	11738.252270	11738.510591	11740.496639	14-May-2025 15:24:11	11633.810805	104.441465	5	11741.590541	0.000000
121	6	31	57	kitchen	sun_axyyrmzcupyhlivc.tif	11747.527174	11747.785534	11749.771441	14-May-2025 15:24:11	11633.810805	113.716369	none	NaN	NaN
121	6	32	41	kitchen	sun_ahljzhgcdpomplvg.tif	11749.785030	11750.043825	11752.029281	14-May-2025 15:24:11	11633.810805	115.974225	none	NaN	NaN
121	6	33	46	kitchen	sun_ajcbwwvdlsvjyzje.tif	11752.035331	11752.293817	11754.279651	14-May-2025 15:24:11	11633.810805	118.224526	none	NaN	NaN
121	6	34	32	kitchen	sun_aenotlpyftoioydp.tif	11754.284928	11754.543699	11756.528845	14-May-2025 15:24:11	11633.810805	120.474123	none	NaN	NaN
121	6	35	52	kitchen	sun_auaiucuqpdausiva.tif	11756.535100	11756.793778	11758.779725	14-May-2025 15:24:11	11633.810805	122.724295	none	NaN	NaN
121	6	36	22	kitchen	sun_abpwyqmlzafvklqo.tif	11758.785288	11759.043667	11761.029158	14-May-2025 15:24:11	11633.810805	124.974483	none	NaN	NaN
121	6	37	34	kitchen	sun_aexklacwqwezaorf.tif	11761.043095	11761.301511	11763.287649	14-May-2025 15:24:11	11633.810805	127.232291	none	NaN	NaN
121	6	38	51	kitchen	sun_aqeaevwwwjoqhzvl.tif	11763.301357	11763.559790	11765.545312	14-May-2025 15:24:11	11633.810805	129.490553	5	11766.537726	0.000000
121	6	39	60	kitchen	sun_azmutvzbxypaceni.tif	11772.576481	11772.834721	11774.820913	14-May-2025 15:24:11	11633.810805	138.765676	none	NaN	NaN
121	6	40	33	kitchen	sun_aeqdocilnnpuvuhx.tif	11774.826298	11775.084679	11777.070636	14-May-2025 15:24:11	11633.810805	141.015494	6	11778.277638	1.000000
121	6	41	27	kitchen	sun_acxkpeoqbwcxfvip.tif	11784.101257	11784.359557	11786.345642	14-May-2025 15:24:11	11633.810805	150.290453	none	NaN	NaN
121	6	42	13	kitchen	labelme_rykdqxenmhulbdn.tif	11786.351219	11786.609607	11788.595537	14-May-2025 15:24:11	11633.810805	152.540414	6	11790.571152	0.000000
121	6	43	30	kitchen	sun_aegoxogugdkwpmpj.tif	11795.618351	11795.876699	11797.862787	14-May-2025 15:24:11	11633.810805	161.807547	none	NaN	NaN
121	6	44	29	kitchen	sun_admlmbcdswaszruo.tif	11797.867896	11798.126674	11800.111744	14-May-2025 15:24:11	11633.810805	164.057091	none	NaN	NaN
121	6	45	11	kitchen	labelme_brsyyvweiuaazfr.tif	11800.117900	11800.376670	11802.362454	14-May-2025 15:24:11	11633.810805	166.307095	none	NaN	NaN
121	6	46	47	kitchen	sun_ajkqhtgcbgpcwrwn.tif	11802.368271	11802.626632	11804.612586	14-May-2025 15:24:11	11633.810805	168.557466	none	NaN	NaN
121	6	47	38	kitchen	sun_agubuxuukhzyzpdp.tif	11804.617883	11804.876550	11806.861712	14-May-2025 15:24:11	11633.810805	170.807078	none	NaN	NaN
121	6	48	54	kitchen	sun_auticobqsbwgoppi.tif	11806.868243	11807.126724	11809.112200	14-May-2025 15:24:11	11633.810805	173.057439	none	NaN	NaN
121	6	49	26	kitchen	sun_acwjdupvyjsugpay.tif	11809.118218	11809.376223	11811.362734	14-May-2025 15:24:11	11633.810805	175.307413	5	11812.653879	1.000000
121	6	50	42	kitchen	sun_ahpczsiumwwocjkv.tif	11818.384460	11818.643181	11820.628832	14-May-2025 15:24:11	11633.810805	184.573655	none	NaN	NaN
121	6	51	55	kitchen	sun_avszsnwsbuqfgzbn.tif	11820.634386	11820.892583	11822.878502	14-May-2025 15:24:11	11633.810805	186.823581	none	NaN	NaN
121	6	52	42	kitchen	sun_ahpczsiumwwocjkv.tif	11822.884336	11823.142602	11825.128696	14-May-2025 15:24:11	11633.810805	189.073531	none	NaN	NaN
121	6	53	33	kitchen	sun_aeqdocilnnpuvuhx.tif	11825.134375	11825.392605	11827.378714	14-May-2025 15:24:11	11633.810805	191.323571	5	11828.801878	1.000000
121	6	54	44	kitchen	sun_ahywdevtimnqcsln.tif	11834.409348	11834.667583	11836.653149	14-May-2025 15:24:11	11633.810805	200.598544	none	NaN	NaN
121	6	55	51	kitchen	sun_aqeaevwwwjoqhzvl.tif	11836.659284	11836.917566	11838.903584	14-May-2025 15:24:11	11633.810805	202.848480	none	NaN	NaN
121	6	56	31	kitchen	sun_aehawpgmrlhlvcow.tif	11838.917516	11839.175882	11841.161703	14-May-2025 15:24:11	11633.810805	205.106712	none	NaN	NaN
121	6	57	37	kitchen	sun_agorklincwxrdtga.tif	11841.167487	11841.425810	11843.411702	14-May-2025 15:24:11	11633.810805	207.356682	none	NaN	NaN
121	6	58	39	kitchen	sun_agzzivivdpnawacl.tif	11843.417400	11843.675796	11845.661216	14-May-2025 15:24:11	11633.810805	209.606596	none	NaN	NaN
121	6	59	24	kitchen	sun_acfmftudsenhrfhy.tif	11845.667445	11845.925839	11847.912556	14-May-2025 15:24:11	11633.810805	211.856640	none	NaN	NaN
121	6	60	17	kitchen	sun_aarfiyshqohlwkmo.tif	11847.925806	11848.184115	11850.170103	14-May-2025 15:24:11	11633.810805	214.115001	none	NaN	NaN
121	6	61	13	kitchen	labelme_rykdqxenmhulbdn.tif	11850.175833	11850.434218	11852.420192	14-May-2025 15:24:11	11633.810805	216.365028	none	NaN	NaN
121	6	62	34	kitchen	sun_aexklacwqwezaorf.tif	11852.434579	11852.692902	11854.678730	14-May-2025 15:24:11	11633.810805	218.623774	none	NaN	NaN
121	6	63	53	kitchen	sun_aunzlwrbjumxhwdj.tif	11854.692516	11854.951226	11856.936918	14-May-2025 15:24:11	11633.810805	220.881711	5	11858.926718	1.000000
121	6	64	41	kitchen	sun_ahljzhgcdpomplvg.tif	11863.968057	11864.225765	11866.212464	14-May-2025 15:24:11	11633.810805	230.157252	none	NaN	NaN
121	6	65	12	kitchen	labelme_kxvouciolcpqplr.tif	11866.226130	11866.484083	11868.470530	14-May-2025 15:24:11	11633.810805	232.415326	none	NaN	NaN
121	6	66	56	kitchen	sun_awcpdzzznmweyyhv.tif	11868.475667	11868.734070	11870.720001	14-May-2025 15:24:11	11633.810805	234.664863	6	11872.901928	0.000000
121	6	67	18	kitchen	sun_aaxxjlsuzvqlgylf.tif	11877.742328	11878.001022	11879.986600	14-May-2025 15:24:11	11633.810805	243.931524	none	NaN	NaN
121	6	68	15	kitchen	sun_aamedkxepzlwuxes.tif	11879.992603	11880.250531	11882.236876	14-May-2025 15:24:11	11633.810805	246.181799	none	NaN	NaN
121	6	69	46	kitchen	sun_ajcbwwvdlsvjyzje.tif	11882.250459	11882.508960	11884.494666	14-May-2025 15:24:11	11633.810805	248.439654	none	NaN	NaN
121	6	70	60	kitchen	sun_azmutvzbxypaceni.tif	11884.500576	11884.758938	11886.744969	14-May-2025 15:24:11	11633.810805	250.689771	none	NaN	NaN
121	6	71	27	kitchen	sun_acxkpeoqbwcxfvip.tif	11886.750456	11887.008914	11888.994628	14-May-2025 15:24:11	11633.810805	252.939651	none	NaN	NaN
121	6	72	36	kitchen	sun_aggjlwcdjsjcaemh.tif	11889.000539	11889.258801	11891.244473	14-May-2025 15:24:11	11633.810805	255.189734	none	NaN	NaN
121	6	73	14	kitchen	sun_aadbddgrdsjugojn.tif	11891.250473	11891.508774	11893.494915	14-May-2025 15:24:11	11633.810805	257.439669	none	NaN	NaN
121	6	74	26	kitchen	sun_acwjdupvyjsugpay.tif	11893.500469	11893.758752	11895.744736	14-May-2025 15:24:11	11633.810805	259.689665	none	NaN	NaN
121	6	75	54	kitchen	sun_auticobqsbwgoppi.tif	11895.750405	11896.008766	11897.994316	14-May-2025 15:24:11	11633.810805	261.939600	none	NaN	NaN
121	6	76	45	kitchen	sun_aixorpehvfykdynp.tif	11898.000472	11898.258740	11900.244487	14-May-2025 15:24:11	11633.810805	264.189667	none	NaN	NaN
121	6	77	59	kitchen	sun_aypmqwcualkenuoe.tif	11900.258758	11900.517142	11902.503032	14-May-2025 15:24:11	11633.810805	266.447954	none	NaN	NaN
121	6	78	58	kitchen	sun_aymvwlarqodbwuoc.tif	11902.516992	11902.775302	11904.761136	14-May-2025 15:24:11	11633.810805	268.706188	none	NaN	NaN
121	6	79	50	kitchen	sun_amjjdeyrggfqgmom.tif	11904.767181	11905.025304	11907.011411	14-May-2025 15:24:11	11633.810805	270.956377	none	NaN	NaN
121	6	80	49	kitchen	sun_akcjzhbbjlbogpdi.tif	11907.017030	11907.275294	11909.261481	14-May-2025 15:24:11	11633.810805	273.206225	none	NaN	NaN
121	6	81	20	kitchen	sun_abdxkyyxwfskuaqb.tif	11909.275270	11909.533645	11911.519827	14-May-2025 15:24:11	11633.810805	275.464465	none	NaN	NaN
121	6	82	25	kitchen	sun_acgtpgfybqjmzeyw.tif	11911.534318	11911.792462	11913.778111	14-May-2025 15:24:11	11633.810805	277.723513	none	NaN	NaN
121	6	83	40	kitchen	sun_ahdycvpopffkzzsu.tif	11913.784058	11914.042038	11916.028241	14-May-2025 15:24:11	11633.810805	279.973253	none	NaN	NaN
121	6	84	47	kitchen	sun_ajkqhtgcbgpcwrwn.tif	11916.033626	11916.292014	11918.278029	14-May-2025 15:24:11	11633.810805	282.222821	5	11919.548177	0.000000
121	6	85	38	kitchen	sun_agubuxuukhzyzpdp.tif	11925.308591	11925.567324	11927.552890	14-May-2025 15:24:11	11633.810805	291.497786	none	NaN	NaN
121	6	86	30	kitchen	sun_aegoxogugdkwpmpj.tif	11927.558580	11927.816926	11929.803212	14-May-2025 15:24:11	11633.810805	293.747776	none	NaN	NaN
121	6	87	32	kitchen	sun_aenotlpyftoioydp.tif	11929.808400	11930.067323	11932.052596	14-May-2025 15:24:11	11633.810805	295.997595	none	NaN	NaN
121	6	88	52	kitchen	sun_auaiucuqpdausiva.tif	11932.058558	11932.317358	11934.302695	14-May-2025 15:24:11	11633.810805	298.247754	none	NaN	NaN
121	6	89	16	kitchen	sun_aapllqyqlykszopd.tif	11934.308856	11934.567291	11936.553055	14-May-2025 15:24:11	11633.810805	300.498052	none	NaN	NaN
121	6	90	28	kitchen	sun_adgqasybjyktddhj.tif	11936.558873	11936.817389	11938.802635	14-May-2025 15:24:11	11633.810805	302.748069	none	NaN	NaN
121	6	91	11	kitchen	labelme_brsyyvweiuaazfr.tif	11938.808432	11939.066833	11941.052582	14-May-2025 15:24:11	11633.810805	304.997627	none	NaN	NaN
121	6	92	29	kitchen	sun_admlmbcdswaszruo.tif	11941.058463	11941.316805	11943.302421	14-May-2025 15:24:11	11633.810805	307.247658	none	NaN	NaN
121	6	93	23	kitchen	sun_abrcnpqqhmjwekyf.tif	11943.308414	11943.566783	11945.552559	14-May-2025 15:24:11	11633.810805	309.497609	none	NaN	NaN
121	6	94	19	kitchen	sun_abdenxonkemggwsq.tif	11945.558405	11945.816769	11947.802932	14-May-2025 15:24:11	11633.810805	311.747600	none	NaN	NaN
121	6	95	48	kitchen	sun_akchetnepxlcxhsu.tif	11947.808380	11948.066740	11950.052841	14-May-2025 15:24:11	11633.810805	313.997576	none	NaN	NaN
121	6	96	57	kitchen	sun_axyyrmzcupyhlivc.tif	11950.058341	11950.316726	11952.302336	14-May-2025 15:24:11	11633.810805	316.247536	none	NaN	NaN
121	6	97	21	kitchen	sun_abftihopvusyfakt.tif	11952.308314	11952.566712	11954.552714	14-May-2025 15:24:11	11633.810805	318.497510	none	NaN	NaN
121	6	98	35	kitchen	sun_afuyedyxivkhecmu.tif	11954.558378	11954.816693	11956.802696	14-May-2025 15:24:11	11633.810805	320.747573	none	NaN	NaN
121	6	99	43	kitchen	sun_ahspylgoovwmwvgk.tif	11956.808317	11957.066681	11959.052733	14-May-2025 15:24:11	11633.810805	322.997512	none	NaN	NaN
121	6	100	22	kitchen	sun_abpwyqmlzafvklqo.tif	11959.058258	11959.316658	11961.302144	14-May-2025 15:24:11	11633.810805	325.247453	5	11963.129494	1.000000
