subject	run	trial	texture	category	image	trialOnset	itiOnset	trialEnd	triggerDate	triggerTimeStamp	Onsets	responseKey	responseTime	accuracy
118	3	1	27	bathroom	sun_ahcvzmoyaycdoftf.tif	31758.122676	31758.381013	31760.366530	05-May-2025 16:11:49	31754.094398	4.028278	none	NaN	NaN
118	3	2	21	bathroom	sun_aggnnqpdorgxpvce.tif	31760.372643	31760.630962	31762.617115	05-May-2025 16:11:49	31754.094398	6.278245	none	NaN	NaN
118	3	3	19	bathroom	sun_aclfzgynxzxlbepz.tif	31762.622600	31762.880972	31764.867214	05-May-2025 16:11:49	31754.094398	8.528201	none	NaN	NaN
118	3	4	46	bathroom	sun_apmqjbnwghzuhhzh.tif	31764.872622	31765.130953	31767.116484	05-May-2025 16:11:49	31754.094398	10.778224	none	NaN	NaN
118	3	5	17	bathroom	sun_acegryoqftbzowsg.tif	31767.130939	31767.389276	31769.375068	05-May-2025 16:11:49	31754.094398	13.036541	none	NaN	NaN
118	3	6	34	bathroom	sun_alkosphxlxwjwgjd.tif	31769.380889	31769.639252	31771.625412	05-May-2025 16:11:49	31754.094398	15.286491	none	NaN	NaN
118	3	7	18	bathroom	sun_acgyywnybuveqsro.tif	31771.630915	31771.889718	31773.875318	05-May-2025 16:11:49	31754.094398	17.536517	none	NaN	NaN
118	3	8	38	bathroom	sun_anhioqovhscjqqwb.tif	31773.880867	31774.139220	31776.125396	05-May-2025 16:11:49	31754.094398	19.786468	none	NaN	NaN
118	3	9	50	bathroom	sun_aspsyogrekjtfozg.tif	31776.131143	31776.389216	31778.375418	05-May-2025 16:11:49	31754.094398	22.036745	none	NaN	NaN
118	3	10	29	bathroom	sun_ahqjwnzgolcaoidx.tif	31778.389183	31778.647996	31780.633127	05-May-2025 16:11:49	31754.094398	24.294784	6	31781.966075	0.000000
118	3	11	53	bathroom	sun_ausgutylgojavyoq.tif	31787.664076	31787.923018	31789.908119	05-May-2025 16:11:49	31754.094398	33.569677	5	31791.064141	0.000000
118	3	12	59	bathroom	sun_axyrejkiiaqiurjk.tif	31796.939397	31797.197846	31799.183499	05-May-2025 16:11:49	31754.094398	42.844998	none	NaN	NaN
118	3	13	24	bathroom	sun_agrwbmhcpmfuwmsg.tif	31799.189340	31799.447337	31801.433884	05-May-2025 16:11:49	31754.094398	45.094942	none	NaN	NaN
118	3	14	58	bathroom	sun_axxbkopsgyouuebh.tif	31801.447318	31801.705658	31803.691264	05-May-2025 16:11:49	31754.094398	47.352920	5	31804.462780	1.000000
118	3	15	31	bathroom	sun_akiytfaagpdsphgz.tif	31810.722217	31810.980568	31812.966617	05-May-2025 16:11:49	31754.094398	56.627819	none	NaN	NaN
118	3	16	13	bathroom	sun_aavhrsfjbserjtht.tif	31812.972169	31813.230549	31815.216457	05-May-2025 16:11:49	31754.094398	58.877771	none	NaN	NaN
118	3	17	54	bathroom	sun_auzqhkafidnkrwmo.tif	31815.222341	31815.480527	31817.466929	05-May-2025 16:11:49	31754.094398	61.127943	none	NaN	NaN
118	3	18	37	bathroom	sun_amzlamotzwfkwjco.tif	31817.472130	31817.730513	31819.716030	05-May-2025 16:11:49	31754.094398	63.377732	none	NaN	NaN
118	3	19	49	bathroom	sun_asfwthctfqerjvxr.tif	31819.722161	31819.980494	31821.966213	05-May-2025 16:11:49	31754.094398	65.627763	none	NaN	NaN
118	3	20	45	bathroom	sun_apkxzenqapsujocq.tif	31821.972131	31822.230465	31824.216410	05-May-2025 16:11:49	31754.094398	67.877733	none	NaN	NaN
118	3	21	39	bathroom	sun_anryaplzeujmzfkd.tif	31824.222103	31824.480450	31826.466414	05-May-2025 16:11:49	31754.094398	70.127705	none	NaN	NaN
118	3	22	51	bathroom	sun_atstyziqcmkahyxk.tif	31826.472050	31826.730434	31828.716336	05-May-2025 16:11:49	31754.094398	72.377652	none	NaN	NaN
118	3	23	30	bathroom	sun_ajlawzvmubibwbpy.tif	31828.722089	31828.980416	31830.966531	05-May-2025 16:11:49	31754.094398	74.627691	none	NaN	NaN
118	3	24	33	bathroom	sun_aljolscmmzydegqp.tif	31830.972017	31831.230413	31833.215874	05-May-2025 16:11:49	31754.094398	76.877619	none	NaN	NaN
118	3	25	20	bathroom	sun_afcoljnjfoxjtgja.tif	31833.222339	31833.480345	31835.466724	05-May-2025 16:11:49	31754.094398	79.127941	none	NaN	NaN
118	3	26	60	bathroom	sun_azqyogdvyhahyram.tif	31835.471984	31835.730373	31837.716304	05-May-2025 16:11:49	31754.094398	81.377585	none	NaN	NaN
118	3	27	22	bathroom	sun_agguqiubmwhqqunb.tif	31837.730360	31837.989160	31839.974485	05-May-2025 16:11:49	31754.094398	83.635962	5	31840.998412	1.000000
118	3	28	55	bathroom	sun_avhrdrntsqrjzccq.tif	31847.005644	31847.264070	31849.250208	05-May-2025 16:11:49	31754.094398	92.911246	none	NaN	NaN
118	3	29	52	bathroom	sun_aunuadmjocsddsrl.tif	31849.263584	31849.522287	31851.507943	05-May-2025 16:11:49	31754.094398	95.169186	none	NaN	NaN
118	3	30	14	bathroom	sun_abapwbhyhkfixyex.tif	31851.513546	31851.772186	31853.757812	05-May-2025 16:11:49	31754.094398	97.419148	none	NaN	NaN
118	3	31	35	bathroom	sun_alotolagknyrgtsk.tif	31853.772357	31854.030635	31856.016937	05-May-2025 16:11:49	31754.094398	99.677958	none	NaN	NaN
118	3	32	11	bathroom	labelme_sfxiulhjbhlyiyt.tif	31856.030567	31856.288530	31858.274815	05-May-2025 16:11:49	31754.094398	101.936168	none	NaN	NaN
118	3	33	48	bathroom	sun_aqrpegblszgcoujh.tif	31858.280112	31858.538871	31860.524565	05-May-2025 16:11:49	31754.094398	104.185714	none	NaN	NaN
118	3	34	28	bathroom	sun_ahijqszoswveeyji.tif	31860.530118	31860.788485	31862.774643	05-May-2025 16:11:49	31754.094398	106.435719	5	31863.857215	0.000000
118	3	35	57	bathroom	sun_axldvoqbuvuggfmq.tif	31869.805084	31870.063411	31872.049463	05-May-2025 16:11:49	31754.094398	115.710685	none	NaN	NaN
118	3	36	26	bathroom	sun_ahaulkltgpkeeemi.tif	31872.055016	31872.313382	31874.299387	05-May-2025 16:11:49	31754.094398	117.960618	none	NaN	NaN
118	3	37	23	bathroom	sun_aghyqhbptboemmoq.tif	31874.305013	31874.563362	31876.549524	05-May-2025 16:11:49	31754.094398	120.210615	none	NaN	NaN
118	3	38	47	bathroom	sun_apynckhmoftszqoq.tif	31876.554994	31876.813347	31878.798796	05-May-2025 16:11:49	31754.094398	122.460595	none	NaN	NaN
118	3	39	42	bathroom	sun_apeeialkgkuxddgh.tif	31878.804996	31879.063333	31881.049403	05-May-2025 16:11:49	31754.094398	124.710598	6	31882.791177	1.000000
118	3	40	25	bathroom	sun_agyqfjcfkdcydepw.tif	31888.071591	31888.329921	31890.315974	05-May-2025 16:11:49	31754.094398	133.977193	none	NaN	NaN
118	3	41	32	bathroom	sun_aleqenyvunhactkl.tif	31890.321581	31890.580288	31892.566034	05-May-2025 16:11:49	31754.094398	136.227183	none	NaN	NaN
118	3	42	12	bathroom	sun_aapitsgbtktqubfy.tif	31892.571506	31892.830363	31894.815924	05-May-2025 16:11:49	31754.094398	138.477108	none	NaN	NaN
118	3	43	36	bathroom	sun_ambriybtogmepttm.tif	31894.830245	31895.088675	31897.074116	05-May-2025 16:11:49	31754.094398	140.735847	none	NaN	NaN
118	3	44	44	bathroom	sun_apkruvsevgegsdwp.tif	31897.080145	31897.338184	31899.323941	05-May-2025 16:11:49	31754.094398	142.985747	none	NaN	NaN
118	3	45	56	bathroom	sun_awnqiikzaispgmwo.tif	31899.330257	31899.588177	31901.574754	05-May-2025 16:11:49	31754.094398	145.235858	none	NaN	NaN
118	3	46	15	bathroom	sun_abjtwfukuwddzted.tif	31901.579812	31901.838523	31903.823639	05-May-2025 16:11:49	31754.094398	147.485413	none	NaN	NaN
118	3	47	16	bathroom	sun_acduarbnmmoglmiv.tif	31903.830143	31904.088139	31906.074724	05-May-2025 16:11:49	31754.094398	149.735745	none	NaN	NaN
118	3	48	43	bathroom	sun_apjevzvycyhuqghb.tif	31906.088068	31906.346825	31908.332504	05-May-2025 16:11:49	31754.094398	151.993670	none	NaN	NaN
118	3	49	40	bathroom	sun_aofnryafpsjimzsb.tif	31908.338516	31908.596797	31910.582921	05-May-2025 16:11:49	31754.094398	154.244118	none	NaN	NaN
118	3	50	41	bathroom	sun_aoybiabnpadelefl.tif	31910.588401	31910.846352	31912.832712	05-May-2025 16:11:49	31754.094398	156.494003	6	31914.161900	0.000000
118	3	51	27	bathroom	sun_ahcvzmoyaycdoftf.tif	31919.863281	31920.121324	31922.107352	05-May-2025 16:11:49	31754.094398	165.768883	none	NaN	NaN
118	3	52	36	bathroom	sun_ambriybtogmepttm.tif	31922.121315	31922.379637	31924.365514	05-May-2025 16:11:49	31754.094398	168.026916	none	NaN	NaN
118	3	53	37	bathroom	sun_amzlamotzwfkwjco.tif	31924.371293	31924.629618	31926.615280	05-May-2025 16:11:49	31754.094398	170.276895	none	NaN	NaN
118	3	54	14	bathroom	sun_abapwbhyhkfixyex.tif	31926.621268	31926.879595	31928.865770	05-May-2025 16:11:49	31754.094398	172.526870	none	NaN	NaN
118	3	55	40	bathroom	sun_aofnryafpsjimzsb.tif	31928.879580	31929.137917	31931.123610	05-May-2025 16:11:49	31754.094398	174.785182	none	NaN	NaN
118	3	56	41	bathroom	sun_aoybiabnpadelefl.tif	31931.129568	31931.387894	31933.373544	05-May-2025 16:11:49	31754.094398	177.035170	none	NaN	NaN
118	3	57	39	bathroom	sun_anryaplzeujmzfkd.tif	31933.379533	31933.637882	31935.623335	05-May-2025 16:11:49	31754.094398	179.285134	none	NaN	NaN
118	3	58	43	bathroom	sun_apjevzvycyhuqghb.tif	31935.629516	31935.887858	31937.873896	05-May-2025 16:11:49	31754.094398	181.535117	none	NaN	NaN
118	3	59	60	bathroom	sun_azqyogdvyhahyram.tif	31937.879468	31938.137842	31940.123649	05-May-2025 16:11:49	31754.094398	183.785070	none	NaN	NaN
118	3	60	38	bathroom	sun_anhioqovhscjqqwb.tif	31940.129485	31940.387819	31942.374000	05-May-2025 16:11:49	31754.094398	186.035087	none	NaN	NaN
118	3	61	12	bathroom	sun_aapitsgbtktqubfy.tif	31942.379457	31942.637802	31944.623723	05-May-2025 16:11:49	31754.094398	188.285059	none	NaN	NaN
118	3	62	11	bathroom	labelme_sfxiulhjbhlyiyt.tif	31944.629402	31944.887782	31946.873410	05-May-2025 16:11:49	31754.094398	190.535004	none	NaN	NaN
118	3	63	30	bathroom	sun_ajlawzvmubibwbpy.tif	31946.879377	31947.137768	31949.123273	05-May-2025 16:11:49	31754.094398	192.784979	none	NaN	NaN
118	3	64	28	bathroom	sun_ahijqszoswveeyji.tif	31949.129391	31949.387763	31951.373276	05-May-2025 16:11:49	31754.094398	195.034993	none	NaN	NaN
118	3	65	48	bathroom	sun_aqrpegblszgcoujh.tif	31951.379747	31951.638159	31953.623518	05-May-2025 16:11:49	31754.094398	197.285349	none	NaN	NaN
118	3	66	25	bathroom	sun_agyqfjcfkdcydepw.tif	31953.629711	31953.888098	31955.873800	05-May-2025 16:11:49	31754.094398	199.535313	5	31957.521171	0.000000
118	3	67	23	bathroom	sun_aghyqhbptboemmoq.tif	31962.904306	31963.162640	31965.148826	05-May-2025 16:11:49	31754.094398	208.809907	none	NaN	NaN
118	3	68	16	bathroom	sun_acduarbnmmoglmiv.tif	31965.154713	31965.413005	31967.398913	05-May-2025 16:11:49	31754.094398	211.060315	6	31969.079574	0.000000
118	3	69	58	bathroom	sun_axxbkopsgyouuebh.tif	31974.437868	31974.696368	31976.681909	05-May-2025 16:11:49	31754.094398	220.343469	none	NaN	NaN
118	3	70	21	bathroom	sun_aggnnqpdorgxpvce.tif	31976.687487	31976.946235	31978.931680	05-May-2025 16:11:49	31754.094398	222.593089	5	31980.305088	0.000000
118	3	71	26	bathroom	sun_ahaulkltgpkeeemi.tif	31985.962438	31986.220775	31988.206409	05-May-2025 16:11:49	31754.094398	231.868040	none	NaN	NaN
118	3	72	34	bathroom	sun_alkosphxlxwjwgjd.tif	31988.220757	31988.479084	31990.464997	05-May-2025 16:11:49	31754.094398	234.126359	none	NaN	NaN
118	3	73	52	bathroom	sun_aunuadmjocsddsrl.tif	31990.479080	31990.737422	31992.723205	05-May-2025 16:11:49	31754.094398	236.384682	5	31993.579220	0.000000
118	3	74	15	bathroom	sun_abjtwfukuwddzted.tif	31999.753988	32000.012546	32001.998147	05-May-2025 16:11:49	31754.094398	245.659590	none	NaN	NaN
118	3	75	13	bathroom	sun_aavhrsfjbserjtht.tif	32002.003941	32002.262305	32004.247949	05-May-2025 16:11:49	31754.094398	247.909543	none	NaN	NaN
118	3	76	46	bathroom	sun_apmqjbnwghzuhhzh.tif	32004.253948	32004.512280	32006.498534	05-May-2025 16:11:49	31754.094398	250.159550	none	NaN	NaN
118	3	77	59	bathroom	sun_axyrejkiiaqiurjk.tif	32006.503860	32006.762274	32008.747863	05-May-2025 16:11:49	31754.094398	252.409462	none	NaN	NaN
118	3	78	42	bathroom	sun_apeeialkgkuxddgh.tif	32008.753909	32009.012267	32010.998485	05-May-2025 16:11:49	31754.094398	254.659511	5	32012.247498	1.000000
118	3	79	24	bathroom	sun_agrwbmhcpmfuwmsg.tif	32018.029206	32018.287566	32020.273184	05-May-2025 16:11:49	31754.094398	263.934808	none	NaN	NaN
118	3	80	35	bathroom	sun_alotolagknyrgtsk.tif	32020.279111	32020.537622	32022.523496	05-May-2025 16:11:49	31754.094398	266.184713	none	NaN	NaN
118	3	81	57	bathroom	sun_axldvoqbuvuggfmq.tif	32022.529100	32022.787521	32024.773109	05-May-2025 16:11:49	31754.094398	268.434702	none	NaN	NaN
118	3	82	32	bathroom	sun_aleqenyvunhactkl.tif	32024.779278	32025.037503	32027.023112	05-May-2025 16:11:49	31754.094398	270.684880	none	NaN	NaN
118	3	83	55	bathroom	sun_avhrdrntsqrjzccq.tif	32027.029075	32027.287484	32029.272978	05-May-2025 16:11:49	31754.094398	272.934677	none	NaN	NaN
118	3	84	22	bathroom	sun_agguqiubmwhqqunb.tif	32029.278729	32029.537472	32031.522964	05-May-2025 16:11:49	31754.094398	275.184331	none	NaN	NaN
118	3	85	45	bathroom	sun_apkxzenqapsujocq.tif	32031.528702	32031.787665	32033.773274	05-May-2025 16:11:49	31754.094398	277.434304	5	32034.827942	1.000000
118	3	86	20	bathroom	sun_afcoljnjfoxjtgja.tif	32040.803664	32041.061972	32043.047441	05-May-2025 16:11:49	31754.094398	286.709266	none	NaN	NaN
118	3	87	19	bathroom	sun_aclfzgynxzxlbepz.tif	32043.061963	32043.320233	32045.305870	05-May-2025 16:11:49	31754.094398	288.967564	none	NaN	NaN
118	3	88	31	bathroom	sun_akiytfaagpdsphgz.tif	32045.320234	32045.578464	32047.564749	05-May-2025 16:11:49	31754.094398	291.225836	none	NaN	NaN
118	3	89	47	bathroom	sun_apynckhmoftszqoq.tif	32047.578561	32047.836811	32049.822574	05-May-2025 16:11:49	31754.094398	293.484162	none	NaN	NaN
118	3	90	17	bathroom	sun_acegryoqftbzowsg.tif	32049.828543	32050.094992	32052.072916	05-May-2025 16:11:49	31754.094398	295.734145	6	32053.291521	1.000000
118	3	91	33	bathroom	sun_aljolscmmzydegqp.tif	32059.103289	32059.361660	32061.347437	05-May-2025 16:11:49	31754.094398	305.008891	none	NaN	NaN
118	3	92	51	bathroom	sun_atstyziqcmkahyxk.tif	32061.353476	32061.611611	32063.597746	05-May-2025 16:11:49	31754.094398	307.259078	none	NaN	NaN
118	3	93	54	bathroom	sun_auzqhkafidnkrwmo.tif	32063.611666	32063.870011	32065.855541	05-May-2025 16:11:49	31754.094398	309.517268	5	32066.791660	1.000000
118	3	94	18	bathroom	sun_acgyywnybuveqsro.tif	32072.878307	32073.137208	32075.122538	05-May-2025 16:11:49	31754.094398	318.783909	none	NaN	NaN
118	3	95	50	bathroom	sun_aspsyogrekjtfozg.tif	32075.128823	32075.386756	32077.372630	05-May-2025 16:11:49	31754.094398	321.034425	none	NaN	NaN
118	3	96	53	bathroom	sun_ausgutylgojavyoq.tif	32077.378728	32077.637157	32079.622923	05-May-2025 16:11:49	31754.094398	323.284329	none	NaN	NaN
118	3	97	56	bathroom	sun_awnqiikzaispgmwo.tif	32079.628659	32079.886683	32081.872600	05-May-2025 16:11:49	31754.094398	325.534261	none	NaN	NaN
118	3	98	49	bathroom	sun_asfwthctfqerjvxr.tif	32081.878294	32082.137047	32084.122741	05-May-2025 16:11:49	31754.094398	327.783896	none	NaN	NaN
118	3	99	44	bathroom	sun_apkruvsevgegsdwp.tif	32084.128265	32084.386641	32086.372704	05-May-2025 16:11:49	31754.094398	330.033867	none	NaN	NaN
118	3	100	29	bathroom	sun_ahqjwnzgolcaoidx.tif	32086.386626	32086.644957	32088.630648	05-May-2025 16:11:49	31754.094398	332.292228	none	NaN	NaN
