subject	run	trial	texture	category	image	trialOnset	itiOnset	trialEnd	triggerDate	triggerTimeStamp	Onsets	responseKey	responseTime	accuracy
112	12	1	25	kitchen	sun_acgtpgfybqjmzeyw.tif	30943.035259	30943.293980	30945.279542	14-Apr-2025 16:42:18	30939.014116	4.021142	none	NaN	NaN
112	12	2	15	kitchen	sun_aamedkxepzlwuxes.tif	30945.294072	30945.552299	30947.538617	14-Apr-2025 16:42:18	30939.014116	6.279956	none	NaN	NaN
112	12	3	32	kitchen	sun_aenotlpyftoioydp.tif	30947.551907	30947.810222	30949.796501	14-Apr-2025 16:42:18	30939.014116	8.537790	none	NaN	NaN
112	12	4	18	kitchen	sun_aaxxjlsuzvqlgylf.tif	30949.801841	30950.060586	30952.046108	14-Apr-2025 16:42:18	30939.014116	10.787725	none	NaN	NaN
112	12	5	60	kitchen	sun_azmutvzbxypaceni.tif	30952.060576	30952.318529	30954.304399	14-Apr-2025 16:42:18	30939.014116	13.046459	none	NaN	NaN
112	12	6	34	kitchen	sun_aexklacwqwezaorf.tif	30954.310503	30954.568899	30956.554889	14-Apr-2025 16:42:18	30939.014116	15.296387	none	NaN	NaN
112	12	7	33	kitchen	sun_aeqdocilnnpuvuhx.tif	30956.560470	30956.818866	30958.805088	14-Apr-2025 16:42:18	30939.014116	17.546353	5	30961.356227	1.000000
112	12	8	20	kitchen	sun_abdxkyyxwfskuaqb.tif	30965.834967	30966.093402	30968.079325	14-Apr-2025 16:42:18	30939.014116	26.820851	none	NaN	NaN
112	12	9	11	kitchen	labelme_brsyyvweiuaazfr.tif	30968.084945	30968.343378	30970.329434	14-Apr-2025 16:42:18	30939.014116	29.070828	none	NaN	NaN
112	12	10	30	kitchen	sun_aegoxogugdkwpmpj.tif	30970.343353	30970.601593	30972.587393	14-Apr-2025 16:42:18	30939.014116	31.329236	none	NaN	NaN
112	12	11	53	kitchen	sun_aunzlwrbjumxhwdj.tif	30972.593155	30972.851513	30974.837115	14-Apr-2025 16:42:18	30939.014116	33.579039	none	NaN	NaN
112	12	12	13	kitchen	labelme_rykdqxenmhulbdn.tif	30974.843365	30975.101536	30977.087374	14-Apr-2025 16:42:18	30939.014116	35.829249	none	NaN	NaN
112	12	13	21	kitchen	sun_abftihopvusyfakt.tif	30977.093217	30977.351678	30979.337355	14-Apr-2025 16:42:18	30939.014116	38.079100	none	NaN	NaN
112	12	14	39	kitchen	sun_agzzivivdpnawacl.tif	30979.343211	30979.601614	30981.586982	14-Apr-2025 16:42:18	30939.014116	40.329095	none	NaN	NaN
112	12	15	35	kitchen	sun_afuyedyxivkhecmu.tif	30981.593264	30981.851511	30983.837474	14-Apr-2025 16:42:18	30939.014116	42.579147	none	NaN	NaN
112	12	16	42	kitchen	sun_ahpczsiumwwocjkv.tif	30983.843225	30984.101524	30986.087675	14-Apr-2025 16:42:18	30939.014116	44.829109	none	NaN	NaN
112	12	17	43	kitchen	sun_ahspylgoovwmwvgk.tif	30986.093214	30986.351464	30988.337747	14-Apr-2025 16:42:18	30939.014116	47.079098	none	NaN	NaN
112	12	18	58	kitchen	sun_aymvwlarqodbwuoc.tif	30988.343180	30988.601466	30990.587709	14-Apr-2025 16:42:18	30939.014116	49.329063	none	NaN	NaN
112	12	19	51	kitchen	sun_aqeaevwwwjoqhzvl.tif	30990.593179	30990.851572	30992.837253	14-Apr-2025 16:42:18	30939.014116	51.579063	none	NaN	NaN
112	12	20	49	kitchen	sun_akcjzhbbjlbogpdi.tif	30992.843217	30993.101544	30995.087165	14-Apr-2025 16:42:18	30939.014116	53.829101	none	NaN	NaN
112	12	21	55	kitchen	sun_avszsnwsbuqfgzbn.tif	30995.093160	30995.351906	30997.337059	14-Apr-2025 16:42:18	30939.014116	56.079043	none	NaN	NaN
112	12	22	56	kitchen	sun_awcpdzzznmweyyhv.tif	30997.351526	30997.610276	30999.595897	14-Apr-2025 16:42:18	30939.014116	58.337409	none	NaN	NaN
112	12	23	50	kitchen	sun_amjjdeyrggfqgmom.tif	30999.610416	30999.868176	31001.854801	14-Apr-2025 16:42:18	30939.014116	60.596300	6	31003.320751	1.000000
112	12	24	57	kitchen	sun_axyyrmzcupyhlivc.tif	31008.876789	31009.135240	31011.120952	14-Apr-2025 16:42:18	30939.014116	69.862672	none	NaN	NaN
112	12	25	59	kitchen	sun_aypmqwcualkenuoe.tif	31011.126728	31011.385158	31013.371288	14-Apr-2025 16:42:18	30939.014116	72.112612	6	31014.531728	1.000000
112	12	26	37	kitchen	sun_agorklincwxrdtga.tif	31020.401330	31020.659655	31022.645818	14-Apr-2025 16:42:18	30939.014116	81.387214	6	31025.718969	1.000000
112	12	27	28	kitchen	sun_adgqasybjyktddhj.tif	31029.667931	31029.926254	31031.911743	14-Apr-2025 16:42:18	30939.014116	90.653815	none	NaN	NaN
112	12	28	26	kitchen	sun_acwjdupvyjsugpay.tif	31031.917887	31032.176238	31034.161767	14-Apr-2025 16:42:18	30939.014116	92.903771	none	NaN	NaN
112	12	29	14	kitchen	sun_aadbddgrdsjugojn.tif	31034.167871	31034.426221	31036.412009	14-Apr-2025 16:42:18	30939.014116	95.153755	5	31037.849578	1.000000
112	12	30	27	kitchen	sun_acxkpeoqbwcxfvip.tif	31043.434481	31043.692813	31045.679031	14-Apr-2025 16:42:18	30939.014116	104.420364	none	NaN	NaN
112	12	31	22	kitchen	sun_abpwyqmlzafvklqo.tif	31045.684467	31045.942781	31047.928471	14-Apr-2025 16:42:18	30939.014116	106.670351	none	NaN	NaN
112	12	32	45	kitchen	sun_aixorpehvfykdynp.tif	31047.934455	31048.192773	31050.179061	14-Apr-2025 16:42:18	30939.014116	108.920339	none	NaN	NaN
112	12	33	36	kitchen	sun_aggjlwcdjsjcaemh.tif	31050.192807	31050.451116	31052.437049	14-Apr-2025 16:42:18	30939.014116	111.178690	none	NaN	NaN
112	12	34	41	kitchen	sun_ahljzhgcdpomplvg.tif	31052.443196	31052.701465	31054.687611	14-Apr-2025 16:42:18	30939.014116	113.429080	none	NaN	NaN
112	12	35	40	kitchen	sun_ahdycvpopffkzzsu.tif	31054.693102	31054.951542	31056.937462	14-Apr-2025 16:42:18	30939.014116	115.678985	none	NaN	NaN
112	12	36	12	kitchen	labelme_kxvouciolcpqplr.tif	31056.951526	31057.209393	31059.195425	14-Apr-2025 16:42:18	30939.014116	117.937409	none	NaN	NaN
112	12	37	31	kitchen	sun_aehawpgmrlhlvcow.tif	31059.200969	31059.459378	31061.445155	14-Apr-2025 16:42:18	30939.014116	120.186853	none	NaN	NaN
112	12	38	47	kitchen	sun_ajkqhtgcbgpcwrwn.tif	31061.451386	31061.709361	31063.695884	14-Apr-2025 16:42:18	30939.014116	122.437270	none	NaN	NaN
112	12	39	29	kitchen	sun_admlmbcdswaszruo.tif	31063.709811	31063.967676	31065.954529	14-Apr-2025 16:42:18	30939.014116	124.695694	none	NaN	NaN
112	12	40	38	kitchen	sun_agubuxuukhzyzpdp.tif	31065.968030	31066.225974	31068.212300	14-Apr-2025 16:42:18	30939.014116	126.953914	none	NaN	NaN
112	12	41	48	kitchen	sun_akchetnepxlcxhsu.tif	31068.218088	31068.475935	31070.462215	14-Apr-2025 16:42:18	30939.014116	129.203972	none	NaN	NaN
112	12	42	24	kitchen	sun_acfmftudsenhrfhy.tif	31070.467671	31070.725913	31072.712022	14-Apr-2025 16:42:18	30939.014116	131.453554	none	NaN	NaN
112	12	43	17	kitchen	sun_aarfiyshqohlwkmo.tif	31072.726393	31072.984732	31074.970914	14-Apr-2025 16:42:18	30939.014116	133.712277	none	NaN	NaN
112	12	44	16	kitchen	sun_aapllqyqlykszopd.tif	31074.984628	31075.242942	31077.229235	14-Apr-2025 16:42:18	30939.014116	135.970512	none	NaN	NaN
112	12	45	23	kitchen	sun_abrcnpqqhmjwekyf.tif	31077.234262	31077.493034	31079.478711	14-Apr-2025 16:42:18	30939.014116	138.220146	none	NaN	NaN
112	12	46	46	kitchen	sun_ajcbwwvdlsvjyzje.tif	31079.484169	31079.742560	31081.728116	14-Apr-2025 16:42:18	30939.014116	140.470052	none	NaN	NaN
112	12	47	19	kitchen	sun_abdenxonkemggwsq.tif	31081.734186	31081.992517	31083.977997	14-Apr-2025 16:42:18	30939.014116	142.720069	none	NaN	NaN
112	12	48	54	kitchen	sun_auticobqsbwgoppi.tif	31083.984164	31084.242502	31086.227942	14-Apr-2025 16:42:18	30939.014116	144.970047	none	NaN	NaN
112	12	49	44	kitchen	sun_ahywdevtimnqcsln.tif	31086.242487	31086.500823	31088.486642	14-Apr-2025 16:42:18	30939.014116	147.228370	none	NaN	NaN
112	12	50	52	kitchen	sun_auaiucuqpdausiva.tif	31088.500807	31088.759130	31090.745135	14-Apr-2025 16:42:18	30939.014116	149.486691	none	NaN	NaN
112	12	51	56	kitchen	sun_awcpdzzznmweyyhv.tif	31090.750798	31091.009126	31092.995021	14-Apr-2025 16:42:18	30939.014116	151.736682	none	NaN	NaN
112	12	52	59	kitchen	sun_aypmqwcualkenuoe.tif	31093.000733	31093.259096	31095.244643	14-Apr-2025 16:42:18	30939.014116	153.986617	6	31096.440948	1.000000
112	12	53	14	kitchen	sun_aadbddgrdsjugojn.tif	31102.275691	31102.534034	31104.519884	14-Apr-2025 16:42:18	30939.014116	163.261574	none	NaN	NaN
112	12	54	39	kitchen	sun_agzzivivdpnawacl.tif	31104.525678	31104.784015	31106.770057	14-Apr-2025 16:42:18	30939.014116	165.511562	none	NaN	NaN
112	12	55	20	kitchen	sun_abdxkyyxwfskuaqb.tif	31106.783911	31107.042322	31109.027699	14-Apr-2025 16:42:18	30939.014116	167.769795	none	NaN	NaN
112	12	56	17	kitchen	sun_aarfiyshqohlwkmo.tif	31109.033972	31109.292302	31111.277979	14-Apr-2025 16:42:18	30939.014116	170.019855	none	NaN	NaN
112	12	57	37	kitchen	sun_agorklincwxrdtga.tif	31111.283964	31111.542676	31113.528300	14-Apr-2025 16:42:18	30939.014116	172.269848	none	NaN	NaN
112	12	58	11	kitchen	labelme_brsyyvweiuaazfr.tif	31113.533914	31113.792751	31115.777944	14-Apr-2025 16:42:18	30939.014116	174.519797	none	NaN	NaN
112	12	59	23	kitchen	sun_abrcnpqqhmjwekyf.tif	31115.792263	31116.050972	31118.036548	14-Apr-2025 16:42:18	30939.014116	176.778146	none	NaN	NaN
112	12	60	35	kitchen	sun_afuyedyxivkhecmu.tif	31118.042816	31118.301054	31120.287149	14-Apr-2025 16:42:18	30939.014116	179.028700	none	NaN	NaN
112	12	61	16	kitchen	sun_aapllqyqlykszopd.tif	31120.292171	31120.551028	31122.536444	14-Apr-2025 16:42:18	30939.014116	181.278054	none	NaN	NaN
112	12	62	24	kitchen	sun_acfmftudsenhrfhy.tif	31122.550556	31122.808883	31124.794498	14-Apr-2025 16:42:18	30939.014116	183.536440	none	NaN	NaN
112	12	63	50	kitchen	sun_amjjdeyrggfqgmom.tif	31124.809338	31125.067193	31127.053517	14-Apr-2025 16:42:18	30939.014116	185.795221	none	NaN	NaN
112	12	64	15	kitchen	sun_aamedkxepzlwuxes.tif	31127.059181	31127.317827	31129.303320	14-Apr-2025 16:42:18	30939.014116	188.045064	6	31130.903028	0.000000
112	12	65	49	kitchen	sun_akcjzhbbjlbogpdi.tif	31136.333777	31136.592471	31138.578014	14-Apr-2025 16:42:18	30939.014116	197.319661	none	NaN	NaN
112	12	66	48	kitchen	sun_akchetnepxlcxhsu.tif	31138.583724	31138.842550	31140.828124	14-Apr-2025 16:42:18	30939.014116	199.569608	none	NaN	NaN
112	12	67	52	kitchen	sun_auaiucuqpdausiva.tif	31140.833731	31141.092062	31143.078280	14-Apr-2025 16:42:18	30939.014116	201.819615	5	31144.522373	0.000000
112	12	68	19	kitchen	sun_abdenxonkemggwsq.tif	31150.100327	31150.358656	31152.344152	14-Apr-2025 16:42:18	30939.014116	211.086210	5	31153.503769	0.000000
112	12	69	32	kitchen	sun_aenotlpyftoioydp.tif	31159.366908	31159.625252	31161.610939	14-Apr-2025 16:42:18	30939.014116	220.352791	none	NaN	NaN
112	12	70	44	kitchen	sun_ahywdevtimnqcsln.tif	31161.616914	31161.875228	31163.861273	14-Apr-2025 16:42:18	30939.014116	222.602798	6	31165.434092	1.000000
112	12	71	28	kitchen	sun_adgqasybjyktddhj.tif	31170.892308	31171.150671	31173.136129	14-Apr-2025 16:42:18	30939.014116	231.878192	none	NaN	NaN
112	12	72	33	kitchen	sun_aeqdocilnnpuvuhx.tif	31173.142244	31173.400632	31175.386159	14-Apr-2025 16:42:18	30939.014116	234.128128	5	31178.362185	1.000000
112	12	73	26	kitchen	sun_acwjdupvyjsugpay.tif	31182.408416	31182.667245	31184.652628	14-Apr-2025 16:42:18	30939.014116	243.394300	none	NaN	NaN
112	12	74	27	kitchen	sun_acxkpeoqbwcxfvip.tif	31184.658754	31184.917211	31186.902893	14-Apr-2025 16:42:18	30939.014116	245.644637	none	NaN	NaN
112	12	75	18	kitchen	sun_aaxxjlsuzvqlgylf.tif	31186.908283	31187.166723	31189.152130	14-Apr-2025 16:42:18	30939.014116	247.894167	none	NaN	NaN
112	12	76	21	kitchen	sun_abftihopvusyfakt.tif	31189.158365	31189.417186	31191.402937	14-Apr-2025 16:42:18	30939.014116	250.144249	none	NaN	NaN
112	12	77	38	kitchen	sun_agubuxuukhzyzpdp.tif	31191.408301	31191.667062	31193.652068	14-Apr-2025 16:42:18	30939.014116	252.394184	none	NaN	NaN
112	12	78	31	kitchen	sun_aehawpgmrlhlvcow.tif	31193.667063	31193.925476	31195.911166	14-Apr-2025 16:42:18	30939.014116	254.652947	none	NaN	NaN
112	12	79	30	kitchen	sun_aegoxogugdkwpmpj.tif	31195.925454	31196.183799	31198.169815	14-Apr-2025 16:42:18	30939.014116	256.911337	none	NaN	NaN
112	12	80	47	kitchen	sun_ajkqhtgcbgpcwrwn.tif	31198.175244	31198.433285	31200.419769	14-Apr-2025 16:42:18	30939.014116	259.161128	none	NaN	NaN
112	12	81	13	kitchen	labelme_rykdqxenmhulbdn.tif	31200.433198	31200.691615	31202.677610	14-Apr-2025 16:42:18	30939.014116	261.419082	none	NaN	NaN
112	12	82	41	kitchen	sun_ahljzhgcdpomplvg.tif	31202.683143	31202.941476	31204.927554	14-Apr-2025 16:42:18	30939.014116	263.669027	none	NaN	NaN
112	12	83	25	kitchen	sun_acgtpgfybqjmzeyw.tif	31204.933048	31205.191390	31207.177602	14-Apr-2025 16:42:18	30939.014116	265.918932	none	NaN	NaN
112	12	84	60	kitchen	sun_azmutvzbxypaceni.tif	31207.183148	31207.441415	31209.426994	14-Apr-2025 16:42:18	30939.014116	268.169032	none	NaN	NaN
112	12	85	40	kitchen	sun_ahdycvpopffkzzsu.tif	31209.441422	31209.699744	31211.685906	14-Apr-2025 16:42:18	30939.014116	270.427305	6	31212.739875	1.000000
112	12	86	45	kitchen	sun_aixorpehvfykdynp.tif	31218.716278	31218.974668	31220.960869	14-Apr-2025 16:42:18	30939.014116	279.702162	none	NaN	NaN
112	12	87	55	kitchen	sun_avszsnwsbuqfgzbn.tif	31220.974594	31221.232954	31223.218773	14-Apr-2025 16:42:18	30939.014116	281.960478	none	NaN	NaN
112	12	88	12	kitchen	labelme_kxvouciolcpqplr.tif	31223.224713	31223.483004	31225.469233	14-Apr-2025 16:42:18	30939.014116	284.210596	5	31228.051014	1.000000
112	12	89	22	kitchen	sun_abpwyqmlzafvklqo.tif	31232.499697	31232.758406	31234.743480	14-Apr-2025 16:42:18	30939.014116	293.485581	none	NaN	NaN
112	12	90	54	kitchen	sun_auticobqsbwgoppi.tif	31234.750008	31235.008013	31236.994523	14-Apr-2025 16:42:18	30939.014116	295.735892	none	NaN	NaN
112	12	91	42	kitchen	sun_ahpczsiumwwocjkv.tif	31236.999583	31237.258373	31239.243541	14-Apr-2025 16:42:18	30939.014116	297.985467	none	NaN	NaN
112	12	92	34	kitchen	sun_aexklacwqwezaorf.tif	31239.249581	31239.508348	31241.493914	14-Apr-2025 16:42:18	30939.014116	300.235465	none	NaN	NaN
112	12	93	29	kitchen	sun_admlmbcdswaszruo.tif	31241.499613	31241.758340	31243.743493	14-Apr-2025 16:42:18	30939.014116	302.485497	none	NaN	NaN
112	12	94	57	kitchen	sun_axyyrmzcupyhlivc.tif	31243.749591	31244.008309	31245.994018	14-Apr-2025 16:42:18	30939.014116	304.735474	none	NaN	NaN
112	12	95	58	kitchen	sun_aymvwlarqodbwuoc.tif	31245.999603	31246.257926	31248.244184	14-Apr-2025 16:42:18	30939.014116	306.985486	5	31249.697093	1.000000
112	12	96	46	kitchen	sun_ajcbwwvdlsvjyzje.tif	31255.266183	31255.524524	31257.510321	14-Apr-2025 16:42:18	30939.014116	316.252066	6	31258.845106	0.000000
112	12	97	43	kitchen	sun_ahspylgoovwmwvgk.tif	31264.533151	31264.790936	31266.777189	14-Apr-2025 16:42:18	30939.014116	325.519035	none	NaN	NaN
112	12	98	36	kitchen	sun_aggjlwcdjsjcaemh.tif	31266.782585	31267.040969	31269.026390	14-Apr-2025 16:42:18	30939.014116	327.768469	none	NaN	NaN
112	12	99	53	kitchen	sun_aunzlwrbjumxhwdj.tif	31269.032706	31269.290948	31271.276985	14-Apr-2025 16:42:18	30939.014116	330.018589	none	NaN	NaN
112	12	100	51	kitchen	sun_aqeaevwwwjoqhzvl.tif	31271.282699	31271.541060	31273.527142	14-Apr-2025 16:42:18	30939.014116	332.268583	none	NaN	NaN
