subject	run	trial	texture	category	image	trialOnset	itiOnset	trialEnd	triggerDate	triggerTimeStamp	Onsets	responseKey	responseTime	accuracy
112	8	1	16	kitchen	sun_aapllqyqlykszopd.tif	29300.223002	29300.481342	29302.466982	14-Apr-2025 16:14:55	29296.200956	4.022047	none	NaN	NaN
112	8	2	41	kitchen	sun_ahljzhgcdpomplvg.tif	29302.472911	29302.731328	29304.716905	14-Apr-2025 16:14:55	29296.200956	6.271956	none	NaN	NaN
112	8	3	54	kitchen	sun_auticobqsbwgoppi.tif	29304.722968	29304.981304	29306.967097	14-Apr-2025 16:14:55	29296.200956	8.522013	none	NaN	NaN
112	8	4	59	kitchen	sun_aypmqwcualkenuoe.tif	29306.972950	29307.231289	29309.217451	14-Apr-2025 16:14:55	29296.200956	10.771995	none	NaN	NaN
112	8	5	31	kitchen	sun_aehawpgmrlhlvcow.tif	29309.231277	29309.489593	29311.475728	14-Apr-2025 16:14:55	29296.200956	13.030322	none	NaN	NaN
112	8	6	51	kitchen	sun_aqeaevwwwjoqhzvl.tif	29311.481211	29311.739595	29313.725591	14-Apr-2025 16:14:55	29296.200956	15.280256	none	NaN	NaN
112	8	7	35	kitchen	sun_afuyedyxivkhecmu.tif	29313.731236	29313.989941	29315.975556	14-Apr-2025 16:14:55	29296.200956	17.530280	none	NaN	NaN
112	8	8	33	kitchen	sun_aeqdocilnnpuvuhx.tif	29315.981561	29316.239553	29318.226142	14-Apr-2025 16:14:55	29296.200956	19.780606	none	NaN	NaN
112	8	9	30	kitchen	sun_aegoxogugdkwpmpj.tif	29318.239939	29318.497788	29320.484294	14-Apr-2025 16:14:55	29296.200956	22.038983	6	29321.883627	1.000000
112	8	10	36	kitchen	sun_aggjlwcdjsjcaemh.tif	29327.514443	29327.772705	29329.758806	14-Apr-2025 16:14:55	29296.200956	31.313488	none	NaN	NaN
112	8	11	15	kitchen	sun_aamedkxepzlwuxes.tif	29329.764393	29330.022784	29332.008184	14-Apr-2025 16:14:55	29296.200956	33.563438	none	NaN	NaN
112	8	12	48	kitchen	sun_akchetnepxlcxhsu.tif	29332.014700	29332.272768	29334.258549	14-Apr-2025 16:14:55	29296.200956	35.813744	none	NaN	NaN
112	8	13	27	kitchen	sun_acxkpeoqbwcxfvip.tif	29334.264843	29334.522594	29336.509072	14-Apr-2025 16:14:55	29296.200956	38.063888	5	29337.609938	1.000000
112	8	14	46	kitchen	sun_ajcbwwvdlsvjyzje.tif	29343.531001	29343.789337	29345.775565	14-Apr-2025 16:14:55	29296.200956	47.330046	none	NaN	NaN
112	8	15	34	kitchen	sun_aexklacwqwezaorf.tif	29345.780949	29346.039310	29348.024908	14-Apr-2025 16:14:55	29296.200956	49.579993	none	NaN	NaN
112	8	16	29	kitchen	sun_admlmbcdswaszruo.tif	29348.030961	29348.289294	29350.275002	14-Apr-2025 16:14:55	29296.200956	51.830006	none	NaN	NaN
112	8	17	39	kitchen	sun_agzzivivdpnawacl.tif	29350.280948	29350.539276	29352.524924	14-Apr-2025 16:14:55	29296.200956	54.079993	none	NaN	NaN
112	8	18	42	kitchen	sun_ahpczsiumwwocjkv.tif	29352.530922	29352.789260	29354.774756	14-Apr-2025 16:14:55	29296.200956	56.329967	none	NaN	NaN
112	8	19	43	kitchen	sun_ahspylgoovwmwvgk.tif	29354.780911	29355.039243	29357.025325	14-Apr-2025 16:14:55	29296.200956	58.579956	none	NaN	NaN
112	8	20	37	kitchen	sun_agorklincwxrdtga.tif	29357.030842	29357.289251	29359.275130	14-Apr-2025 16:14:55	29296.200956	60.829887	6	29360.514949	1.000000
112	8	21	18	kitchen	sun_aaxxjlsuzvqlgylf.tif	29366.297477	29366.555793	29368.541630	14-Apr-2025 16:14:55	29296.200956	70.096521	none	NaN	NaN
112	8	22	26	kitchen	sun_acwjdupvyjsugpay.tif	29368.547462	29368.805660	29370.791286	14-Apr-2025 16:14:55	29296.200956	72.346506	none	NaN	NaN
112	8	23	17	kitchen	sun_aarfiyshqohlwkmo.tif	29370.797711	29371.056168	29373.041905	14-Apr-2025 16:14:55	29296.200956	74.596756	5	29375.453333	1.000000
112	8	24	47	kitchen	sun_ajkqhtgcbgpcwrwn.tif	29380.064410	29380.322853	29382.308524	14-Apr-2025 16:14:55	29296.200956	83.863454	none	NaN	NaN
112	8	25	60	kitchen	sun_azmutvzbxypaceni.tif	29382.314330	29382.572955	29384.558094	14-Apr-2025 16:14:55	29296.200956	86.113374	none	NaN	NaN
112	8	26	55	kitchen	sun_avszsnwsbuqfgzbn.tif	29384.564350	29384.822827	29386.808720	14-Apr-2025 16:14:55	29296.200956	88.363394	5	29388.893861	1.000000
112	8	27	20	kitchen	sun_abdxkyyxwfskuaqb.tif	29393.830560	29394.088968	29396.074767	14-Apr-2025 16:14:55	29296.200956	97.629605	none	NaN	NaN
112	8	28	19	kitchen	sun_abdenxonkemggwsq.tif	29396.080877	29396.339296	29398.324943	14-Apr-2025 16:14:55	29296.200956	99.879921	none	NaN	NaN
112	8	29	14	kitchen	sun_aadbddgrdsjugojn.tif	29398.330889	29398.589301	29400.575499	14-Apr-2025 16:14:55	29296.200956	102.129934	none	NaN	NaN
112	8	30	22	kitchen	sun_abpwyqmlzafvklqo.tif	29400.580362	29400.838811	29402.824852	14-Apr-2025 16:14:55	29296.200956	104.379407	6	29403.730347	1.000000
112	8	31	21	kitchen	sun_abftihopvusyfakt.tif	29409.855300	29410.113697	29412.099258	14-Apr-2025 16:14:55	29296.200956	113.654345	none	NaN	NaN
112	8	32	58	kitchen	sun_aymvwlarqodbwuoc.tif	29412.105381	29412.363602	29414.349207	14-Apr-2025 16:14:55	29296.200956	115.904425	none	NaN	NaN
112	8	33	52	kitchen	sun_auaiucuqpdausiva.tif	29414.355291	29414.613642	29416.599123	14-Apr-2025 16:14:55	29296.200956	118.154335	none	NaN	NaN
112	8	34	25	kitchen	sun_acgtpgfybqjmzeyw.tif	29416.605804	29416.863594	29418.850380	14-Apr-2025 16:14:55	29296.200956	120.404848	none	NaN	NaN
112	8	35	50	kitchen	sun_amjjdeyrggfqgmom.tif	29418.855344	29419.113608	29421.099333	14-Apr-2025 16:14:55	29296.200956	122.654388	none	NaN	NaN
112	8	36	24	kitchen	sun_acfmftudsenhrfhy.tif	29421.113607	29421.371923	29423.358041	14-Apr-2025 16:14:55	29296.200956	124.912652	none	NaN	NaN
112	8	37	23	kitchen	sun_abrcnpqqhmjwekyf.tif	29423.363596	29423.621851	29425.607803	14-Apr-2025 16:14:55	29296.200956	127.162640	none	NaN	NaN
112	8	38	44	kitchen	sun_ahywdevtimnqcsln.tif	29425.613594	29425.871831	29427.857528	14-Apr-2025 16:14:55	29296.200956	129.412639	6	29429.159902	1.000000
112	8	39	56	kitchen	sun_awcpdzzznmweyyhv.tif	29434.880346	29435.138639	29437.124984	14-Apr-2025 16:14:55	29296.200956	138.679390	5	29438.994620	1.000000
112	8	40	53	kitchen	sun_aunzlwrbjumxhwdj.tif	29444.155228	29444.413557	29446.399363	14-Apr-2025 16:14:55	29296.200956	147.954272	none	NaN	NaN
112	8	41	49	kitchen	sun_akcjzhbbjlbogpdi.tif	29446.405539	29446.663923	29448.649522	14-Apr-2025 16:14:55	29296.200956	150.204583	none	NaN	NaN
112	8	42	13	kitchen	labelme_rykdqxenmhulbdn.tif	29448.655140	29448.913907	29450.899648	14-Apr-2025 16:14:55	29296.200956	152.454185	none	NaN	NaN
112	8	43	11	kitchen	labelme_brsyyvweiuaazfr.tif	29450.905457	29451.163912	29453.149350	14-Apr-2025 16:14:55	29296.200956	154.704502	6	29454.450900	1.000000
112	8	44	38	kitchen	sun_agubuxuukhzyzpdp.tif	29460.171761	29460.430099	29462.416249	14-Apr-2025 16:14:55	29296.200956	163.970806	none	NaN	NaN
112	8	45	45	kitchen	sun_aixorpehvfykdynp.tif	29462.421694	29462.680088	29464.665824	14-Apr-2025 16:14:55	29296.200956	166.220739	none	NaN	NaN
112	8	46	12	kitchen	labelme_kxvouciolcpqplr.tif	29464.671728	29464.930055	29466.916057	14-Apr-2025 16:14:55	29296.200956	168.470773	none	NaN	NaN
112	8	47	28	kitchen	sun_adgqasybjyktddhj.tif	29466.921708	29467.180045	29469.166098	14-Apr-2025 16:14:55	29296.200956	170.720752	none	NaN	NaN
112	8	48	32	kitchen	sun_aenotlpyftoioydp.tif	29469.171670	29469.430025	29471.415812	14-Apr-2025 16:14:55	29296.200956	172.970714	none	NaN	NaN
112	8	49	40	kitchen	sun_ahdycvpopffkzzsu.tif	29471.421668	29471.680009	29473.665604	14-Apr-2025 16:14:55	29296.200956	175.220713	6	29475.062385	1.000000
112	8	50	57	kitchen	sun_axyyrmzcupyhlivc.tif	29480.688338	29480.946626	29482.932650	14-Apr-2025 16:14:55	29296.200956	184.487383	none	NaN	NaN
112	8	51	59	kitchen	sun_aypmqwcualkenuoe.tif	29482.946646	29483.204910	29485.190550	14-Apr-2025 16:14:55	29296.200956	186.745691	none	NaN	NaN
112	8	52	25	kitchen	sun_acgtpgfybqjmzeyw.tif	29485.196574	29485.454893	29487.441158	14-Apr-2025 16:14:55	29296.200956	188.995618	none	NaN	NaN
112	8	53	26	kitchen	sun_acwjdupvyjsugpay.tif	29487.446493	29487.704885	29489.690972	14-Apr-2025 16:14:55	29296.200956	191.245538	none	NaN	NaN
112	8	54	16	kitchen	sun_aapllqyqlykszopd.tif	29489.704735	29489.963143	29491.948660	14-Apr-2025 16:14:55	29296.200956	193.503779	none	NaN	NaN
112	8	55	57	kitchen	sun_axyyrmzcupyhlivc.tif	29491.954830	29492.213570	29494.198868	14-Apr-2025 16:14:55	29296.200956	195.753874	none	NaN	NaN
112	8	56	14	kitchen	sun_aadbddgrdsjugojn.tif	29494.205194	29494.463545	29496.449395	14-Apr-2025 16:14:55	29296.200956	198.004238	none	NaN	NaN
112	8	57	51	kitchen	sun_aqeaevwwwjoqhzvl.tif	29496.463154	29496.721863	29498.707395	14-Apr-2025 16:14:55	29296.200956	200.262198	none	NaN	NaN
112	8	58	29	kitchen	sun_admlmbcdswaszruo.tif	29498.713420	29498.971476	29500.957887	14-Apr-2025 16:14:55	29296.200956	202.512464	none	NaN	NaN
112	8	59	11	kitchen	labelme_brsyyvweiuaazfr.tif	29500.963433	29501.221451	29503.207953	14-Apr-2025 16:14:55	29296.200956	204.762478	5	29504.453052	1.000000
112	8	60	42	kitchen	sun_ahpczsiumwwocjkv.tif	29510.238426	29510.496760	29512.482266	14-Apr-2025 16:14:55	29296.200956	214.037471	none	NaN	NaN
112	8	61	13	kitchen	labelme_rykdqxenmhulbdn.tif	29512.488331	29512.746743	29514.732204	14-Apr-2025 16:14:55	29296.200956	216.287376	none	NaN	NaN
112	8	62	43	kitchen	sun_ahspylgoovwmwvgk.tif	29514.737959	29514.996718	29516.982521	14-Apr-2025 16:14:55	29296.200956	218.537003	6	29519.763912	1.000000
112	8	63	56	kitchen	sun_awcpdzzznmweyyhv.tif	29524.012795	29524.271272	29526.257007	14-Apr-2025 16:14:55	29296.200956	227.811840	none	NaN	NaN
112	8	64	33	kitchen	sun_aeqdocilnnpuvuhx.tif	29526.262800	29526.521155	29528.506898	14-Apr-2025 16:14:55	29296.200956	230.061845	none	NaN	NaN
112	8	65	20	kitchen	sun_abdxkyyxwfskuaqb.tif	29528.512862	29528.771106	29530.757129	14-Apr-2025 16:14:55	29296.200956	232.311907	5	29534.371400	1.000000
112	8	66	34	kitchen	sun_aexklacwqwezaorf.tif	29537.787649	29538.046154	29540.032034	14-Apr-2025 16:14:55	29296.200956	241.586693	none	NaN	NaN
112	8	67	28	kitchen	sun_adgqasybjyktddhj.tif	29540.037787	29540.296076	29542.282273	14-Apr-2025 16:14:55	29296.200956	243.836832	none	NaN	NaN
112	8	68	27	kitchen	sun_acxkpeoqbwcxfvip.tif	29542.296043	29542.554341	29544.540239	14-Apr-2025 16:14:55	29296.200956	246.095088	none	NaN	NaN
112	8	69	24	kitchen	sun_acfmftudsenhrfhy.tif	29544.545989	29544.804457	29546.790315	14-Apr-2025 16:14:55	29296.200956	248.345034	none	NaN	NaN
112	8	70	44	kitchen	sun_ahywdevtimnqcsln.tif	29546.796050	29547.054430	29549.040262	14-Apr-2025 16:14:55	29296.200956	250.595095	none	NaN	NaN
112	8	71	45	kitchen	sun_aixorpehvfykdynp.tif	29549.045917	29549.304402	29551.290428	14-Apr-2025 16:14:55	29296.200956	252.844962	none	NaN	NaN
112	8	72	23	kitchen	sun_abrcnpqqhmjwekyf.tif	29551.296050	29551.554875	29553.540511	14-Apr-2025 16:14:55	29296.200956	255.095095	none	NaN	NaN
112	8	73	38	kitchen	sun_agubuxuukhzyzpdp.tif	29553.545999	29553.804841	29555.790360	14-Apr-2025 16:14:55	29296.200956	257.345043	none	NaN	NaN
112	8	74	48	kitchen	sun_akchetnepxlcxhsu.tif	29555.804783	29556.063164	29558.049111	14-Apr-2025 16:14:55	29296.200956	259.603827	none	NaN	NaN
112	8	75	30	kitchen	sun_aegoxogugdkwpmpj.tif	29558.054310	29558.313044	29560.298903	14-Apr-2025 16:14:55	29296.200956	261.853355	none	NaN	NaN
112	8	76	15	kitchen	sun_aamedkxepzlwuxes.tif	29560.304752	29560.563129	29562.548685	14-Apr-2025 16:14:55	29296.200956	264.103796	none	NaN	NaN
112	8	77	53	kitchen	sun_aunzlwrbjumxhwdj.tif	29562.554299	29562.813112	29564.798236	14-Apr-2025 16:14:55	29296.200956	266.353344	6	29566.601477	1.000000
112	8	78	36	kitchen	sun_aggjlwcdjsjcaemh.tif	29571.820904	29572.079241	29574.064986	14-Apr-2025 16:14:55	29296.200956	275.619948	none	NaN	NaN
112	8	79	21	kitchen	sun_abftihopvusyfakt.tif	29574.071166	29574.329591	29576.315264	14-Apr-2025 16:14:55	29296.200956	277.870210	none	NaN	NaN
112	8	80	31	kitchen	sun_aehawpgmrlhlvcow.tif	29576.320857	29576.579664	29578.564820	14-Apr-2025 16:14:55	29296.200956	280.119902	none	NaN	NaN
112	8	81	46	kitchen	sun_ajcbwwvdlsvjyzje.tif	29578.570845	29578.829191	29580.814973	14-Apr-2025 16:14:55	29296.200956	282.369890	none	NaN	NaN
112	8	82	52	kitchen	sun_auaiucuqpdausiva.tif	29580.820767	29581.079160	29583.064642	14-Apr-2025 16:14:55	29296.200956	284.619812	none	NaN	NaN
112	8	83	12	kitchen	labelme_kxvouciolcpqplr.tif	29583.070798	29583.329146	29585.314894	14-Apr-2025 16:14:55	29296.200956	286.869842	none	NaN	NaN
112	8	84	58	kitchen	sun_aymvwlarqodbwuoc.tif	29585.320727	29585.579126	29587.564879	14-Apr-2025 16:14:55	29296.200956	289.119772	none	NaN	NaN
112	8	85	22	kitchen	sun_abpwyqmlzafvklqo.tif	29587.570753	29587.829107	29589.814924	14-Apr-2025 16:14:55	29296.200956	291.369797	none	NaN	NaN
112	8	86	37	kitchen	sun_agorklincwxrdtga.tif	29589.820720	29590.079086	29592.064570	14-Apr-2025 16:14:55	29296.200956	293.619764	5	29595.292205	1.000000
112	8	87	40	kitchen	sun_ahdycvpopffkzzsu.tif	29599.087352	29599.345680	29601.331398	14-Apr-2025 16:14:55	29296.200956	302.886397	none	NaN	NaN
112	8	88	32	kitchen	sun_aenotlpyftoioydp.tif	29601.337308	29601.595672	29603.581088	14-Apr-2025 16:14:55	29296.200956	305.136352	none	NaN	NaN
112	8	89	50	kitchen	sun_amjjdeyrggfqgmom.tif	29603.587305	29603.845655	29605.831583	14-Apr-2025 16:14:55	29296.200956	307.386349	none	NaN	NaN
112	8	90	17	kitchen	sun_aarfiyshqohlwkmo.tif	29605.837294	29606.095634	29608.081482	14-Apr-2025 16:14:55	29296.200956	309.636338	none	NaN	NaN
112	8	91	54	kitchen	sun_auticobqsbwgoppi.tif	29608.087269	29608.345617	29610.331166	14-Apr-2025 16:14:55	29296.200956	311.886313	none	NaN	NaN
112	8	92	60	kitchen	sun_azmutvzbxypaceni.tif	29610.345606	29610.604406	29612.589707	14-Apr-2025 16:14:55	29296.200956	314.144650	none	NaN	NaN
112	8	93	55	kitchen	sun_avszsnwsbuqfgzbn.tif	29612.595879	29612.854307	29614.840315	14-Apr-2025 16:14:55	29296.200956	316.394923	none	NaN	NaN
112	8	94	47	kitchen	sun_ajkqhtgcbgpcwrwn.tif	29614.845506	29615.104368	29617.089811	14-Apr-2025 16:14:55	29296.200956	318.644550	none	NaN	NaN
112	8	95	35	kitchen	sun_afuyedyxivkhecmu.tif	29617.104360	29617.362222	29619.348499	14-Apr-2025 16:14:55	29296.200956	320.903405	none	NaN	NaN
112	8	96	39	kitchen	sun_agzzivivdpnawacl.tif	29619.354160	29619.612575	29621.598362	14-Apr-2025 16:14:55	29296.200956	323.153205	none	NaN	NaN
112	8	97	41	kitchen	sun_ahljzhgcdpomplvg.tif	29621.603783	29621.862186	29623.848034	14-Apr-2025 16:14:55	29296.200956	325.402828	none	NaN	NaN
112	8	98	49	kitchen	sun_akcjzhbbjlbogpdi.tif	29623.853768	29624.112626	29626.098031	14-Apr-2025 16:14:55	29296.200956	327.652812	none	NaN	NaN
112	8	99	18	kitchen	sun_aaxxjlsuzvqlgylf.tif	29626.104224	29626.362155	29628.348315	14-Apr-2025 16:14:55	29296.200956	329.903268	none	NaN	NaN
112	8	100	19	kitchen	sun_abdenxonkemggwsq.tif	29628.354257	29628.612592	29630.598298	14-Apr-2025 16:14:55	29296.200956	332.153301	none	NaN	NaN
