subject	run	trial	texture	category	image	trialOnset	itiOnset	trialEnd	triggerDate	triggerTimeStamp	Onsets	responseKey	responseTime	accuracy
112	6	1	14	kitchen	sun_aadbddgrdsjugojn.tif	28478.129415	28478.388269	28480.373410	14-Apr-2025 16:01:13	28474.101800	4.027615	none	NaN	NaN
112	6	2	31	kitchen	sun_aehawpgmrlhlvcow.tif	28480.387739	28480.646079	28482.631508	14-Apr-2025 16:01:13	28474.101800	6.285939	5	28484.165735	1.000000
112	6	3	58	kitchen	sun_aymvwlarqodbwuoc.tif	28489.662656	28489.921466	28491.906589	14-Apr-2025 16:01:13	28474.101800	15.560856	none	NaN	NaN
112	6	4	15	kitchen	sun_aamedkxepzlwuxes.tif	28491.912606	28492.170976	28494.156996	14-Apr-2025 16:01:13	28474.101800	17.810805	none	NaN	NaN
112	6	5	37	kitchen	sun_agorklincwxrdtga.tif	28494.171340	28494.429671	28496.415870	14-Apr-2025 16:01:13	28474.101800	20.069540	none	NaN	NaN
112	6	6	40	kitchen	sun_ahdycvpopffkzzsu.tif	28496.429311	28496.687982	28498.673497	14-Apr-2025 16:01:13	28474.101800	22.327510	none	NaN	NaN
112	6	7	49	kitchen	sun_akcjzhbbjlbogpdi.tif	28498.679680	28498.937583	28500.923948	14-Apr-2025 16:01:13	28474.101800	24.577879	6	28501.992543	1.000000
112	6	8	43	kitchen	sun_ahspylgoovwmwvgk.tif	28507.954182	28508.212439	28510.198603	14-Apr-2025 16:01:13	28474.101800	33.852381	none	NaN	NaN
112	6	9	12	kitchen	labelme_kxvouciolcpqplr.tif	28510.204107	28510.462487	28512.448184	14-Apr-2025 16:01:13	28474.101800	36.102307	none	NaN	NaN
112	6	10	19	kitchen	sun_abdenxonkemggwsq.tif	28512.454112	28512.712475	28514.697989	14-Apr-2025 16:01:13	28474.101800	38.352312	none	NaN	NaN
112	6	11	48	kitchen	sun_akchetnepxlcxhsu.tif	28514.704100	28514.962456	28516.948717	14-Apr-2025 16:01:13	28474.101800	40.602300	6	28517.948214	1.000000
112	6	12	56	kitchen	sun_awcpdzzznmweyyhv.tif	28523.970724	28524.229043	28526.214816	14-Apr-2025 16:01:13	28474.101800	49.868924	none	NaN	NaN
112	6	13	59	kitchen	sun_aypmqwcualkenuoe.tif	28526.220672	28526.479032	28528.464769	14-Apr-2025 16:01:13	28474.101800	52.118872	none	NaN	NaN
112	6	14	50	kitchen	sun_amjjdeyrggfqgmom.tif	28528.470677	28528.729010	28530.715247	14-Apr-2025 16:01:13	28474.101800	54.368876	none	NaN	NaN
112	6	15	39	kitchen	sun_agzzivivdpnawacl.tif	28530.721146	28530.979474	28532.964988	14-Apr-2025 16:01:13	28474.101800	56.619345	none	NaN	NaN
112	6	16	53	kitchen	sun_aunzlwrbjumxhwdj.tif	28532.979454	28533.237786	28535.223277	14-Apr-2025 16:01:13	28474.101800	58.877654	none	NaN	NaN
112	6	17	28	kitchen	sun_adgqasybjyktddhj.tif	28535.229545	28535.487777	28537.474008	14-Apr-2025 16:01:13	28474.101800	61.127745	6	28540.206159	1.000000
112	6	18	18	kitchen	sun_aaxxjlsuzvqlgylf.tif	28544.503911	28544.762705	28546.747750	14-Apr-2025 16:01:13	28474.101800	70.402111	none	NaN	NaN
112	6	19	21	kitchen	sun_abftihopvusyfakt.tif	28546.754319	28547.012587	28548.998178	14-Apr-2025 16:01:13	28474.101800	72.652518	none	NaN	NaN
112	6	20	55	kitchen	sun_avszsnwsbuqfgzbn.tif	28549.003858	28549.262651	28551.248445	14-Apr-2025 16:01:13	28474.101800	74.902058	5	28554.201724	1.000000
112	6	21	23	kitchen	sun_abrcnpqqhmjwekyf.tif	28558.270450	28558.528795	28560.514948	14-Apr-2025 16:01:13	28474.101800	84.168649	none	NaN	NaN
112	6	22	17	kitchen	sun_aarfiyshqohlwkmo.tif	28560.520436	28560.778757	28562.764273	14-Apr-2025 16:01:13	28474.101800	86.418635	none	NaN	NaN
112	6	23	36	kitchen	sun_aggjlwcdjsjcaemh.tif	28562.770401	28563.028742	28565.014207	14-Apr-2025 16:01:13	28474.101800	88.668601	none	NaN	NaN
112	6	24	24	kitchen	sun_acfmftudsenhrfhy.tif	28565.028726	28565.287063	28567.272555	14-Apr-2025 16:01:13	28474.101800	90.926926	none	NaN	NaN
112	6	25	16	kitchen	sun_aapllqyqlykszopd.tif	28567.278714	28567.537044	28569.522916	14-Apr-2025 16:01:13	28474.101800	93.176914	none	NaN	NaN
112	6	26	45	kitchen	sun_aixorpehvfykdynp.tif	28569.528674	28569.787022	28571.772544	14-Apr-2025 16:01:13	28474.101800	95.426874	none	NaN	NaN
112	6	27	20	kitchen	sun_abdxkyyxwfskuaqb.tif	28571.787008	28572.045340	28574.031618	14-Apr-2025 16:01:13	28474.101800	97.685208	none	NaN	NaN
112	6	28	25	kitchen	sun_acgtpgfybqjmzeyw.tif	28574.045329	28574.303660	28576.289532	14-Apr-2025 16:01:13	28474.101800	99.943529	none	NaN	NaN
112	6	29	44	kitchen	sun_ahywdevtimnqcsln.tif	28576.295301	28576.553645	28578.539165	14-Apr-2025 16:01:13	28474.101800	102.193500	none	NaN	NaN
112	6	30	35	kitchen	sun_afuyedyxivkhecmu.tif	28578.545270	28578.803597	28580.789475	14-Apr-2025 16:01:13	28474.101800	104.443469	6	28582.391011	1.000000
112	6	31	57	kitchen	sun_axyyrmzcupyhlivc.tif	28587.811689	28588.070089	28590.056286	14-Apr-2025 16:01:13	28474.101800	113.709889	none	NaN	NaN
112	6	32	41	kitchen	sun_ahljzhgcdpomplvg.tif	28590.070196	28590.328545	28592.314317	14-Apr-2025 16:01:13	28474.101800	115.968396	none	NaN	NaN
112	6	33	46	kitchen	sun_ajcbwwvdlsvjyzje.tif	28592.320593	28592.579003	28594.564921	14-Apr-2025 16:01:13	28474.101800	118.218793	none	NaN	NaN
112	6	34	32	kitchen	sun_aenotlpyftoioydp.tif	28594.578384	28594.837314	28596.822602	14-Apr-2025 16:01:13	28474.101800	120.476584	none	NaN	NaN
112	6	35	52	kitchen	sun_auaiucuqpdausiva.tif	28596.828412	28597.087293	28599.072881	14-Apr-2025 16:01:13	28474.101800	122.726612	none	NaN	NaN
112	6	36	22	kitchen	sun_abpwyqmlzafvklqo.tif	28599.078381	28599.337227	28601.322285	14-Apr-2025 16:01:13	28474.101800	124.976580	none	NaN	NaN
112	6	37	34	kitchen	sun_aexklacwqwezaorf.tif	28601.328845	28601.586800	28603.573196	14-Apr-2025 16:01:13	28474.101800	127.227045	none	NaN	NaN
112	6	38	51	kitchen	sun_aqeaevwwwjoqhzvl.tif	28603.578747	28603.837240	28605.823185	14-Apr-2025 16:01:13	28474.101800	129.476947	6	28607.834272	1.000000
112	6	39	60	kitchen	sun_azmutvzbxypaceni.tif	28612.853358	28613.112158	28615.097651	14-Apr-2025 16:01:13	28474.101800	138.751558	none	NaN	NaN
112	6	40	33	kitchen	sun_aeqdocilnnpuvuhx.tif	28615.112067	28615.370377	28617.356273	14-Apr-2025 16:01:13	28474.101800	141.010267	6	28618.461153	1.000000
112	6	41	27	kitchen	sun_acxkpeoqbwcxfvip.tif	28624.395019	28624.653173	28626.638855	14-Apr-2025 16:01:13	28474.101800	150.293219	none	NaN	NaN
112	6	42	13	kitchen	labelme_rykdqxenmhulbdn.tif	28626.644755	28626.903089	28628.888808	14-Apr-2025 16:01:13	28474.101800	152.542954	6	28631.142101	0.000000
112	6	43	30	kitchen	sun_aegoxogugdkwpmpj.tif	28635.919604	28636.178170	28638.163646	14-Apr-2025 16:01:13	28474.101800	161.817804	none	NaN	NaN
112	6	44	29	kitchen	sun_admlmbcdswaszruo.tif	28638.169663	28638.428150	28640.413812	14-Apr-2025 16:01:13	28474.101800	164.067863	none	NaN	NaN
112	6	45	11	kitchen	labelme_brsyyvweiuaazfr.tif	28640.419768	28640.678018	28642.663808	14-Apr-2025 16:01:13	28474.101800	166.317968	none	NaN	NaN
112	6	46	47	kitchen	sun_ajkqhtgcbgpcwrwn.tif	28642.669726	28642.928046	28644.913811	14-Apr-2025 16:01:13	28474.101800	168.567926	none	NaN	NaN
112	6	47	38	kitchen	sun_agubuxuukhzyzpdp.tif	28644.919738	28645.177993	28647.163833	14-Apr-2025 16:01:13	28474.101800	170.817938	none	NaN	NaN
112	6	48	54	kitchen	sun_auticobqsbwgoppi.tif	28647.169619	28647.427941	28649.414229	14-Apr-2025 16:01:13	28474.101800	173.067818	none	NaN	NaN
112	6	49	26	kitchen	sun_acwjdupvyjsugpay.tif	28649.419551	28649.677994	28651.663309	14-Apr-2025 16:01:13	28474.101800	175.317751	5	28652.967282	1.000000
112	6	50	42	kitchen	sun_ahpczsiumwwocjkv.tif	28658.686306	28658.944674	28660.930076	14-Apr-2025 16:01:13	28474.101800	184.584505	none	NaN	NaN
112	6	51	55	kitchen	sun_avszsnwsbuqfgzbn.tif	28660.936687	28661.195030	28663.180635	14-Apr-2025 16:01:13	28474.101800	186.834886	none	NaN	NaN
112	6	52	42	kitchen	sun_ahpczsiumwwocjkv.tif	28663.186315	28663.445113	28665.430314	14-Apr-2025 16:01:13	28474.101800	189.084514	none	NaN	NaN
112	6	53	33	kitchen	sun_aeqdocilnnpuvuhx.tif	28665.436736	28665.695090	28667.681243	14-Apr-2025 16:01:13	28474.101800	191.334935	6	28672.258645	0.000000
112	6	54	44	kitchen	sun_ahywdevtimnqcsln.tif	28674.711806	28674.970014	28676.956277	14-Apr-2025 16:01:13	28474.101800	200.610006	none	NaN	NaN
112	6	55	51	kitchen	sun_aqeaevwwwjoqhzvl.tif	28676.961564	28677.220000	28679.205956	14-Apr-2025 16:01:13	28474.101800	202.859764	none	NaN	NaN
112	6	56	31	kitchen	sun_aehawpgmrlhlvcow.tif	28679.211564	28679.469519	28681.455861	14-Apr-2025 16:01:13	28474.101800	205.109763	none	NaN	NaN
112	6	57	37	kitchen	sun_agorklincwxrdtga.tif	28681.469503	28681.727672	28683.713913	14-Apr-2025 16:01:13	28474.101800	207.367703	none	NaN	NaN
112	6	58	39	kitchen	sun_agzzivivdpnawacl.tif	28683.727673	28683.986031	28685.972123	14-Apr-2025 16:01:13	28474.101800	209.625872	none	NaN	NaN
112	6	59	24	kitchen	sun_acfmftudsenhrfhy.tif	28685.977651	28686.236017	28688.221578	14-Apr-2025 16:01:13	28474.101800	211.875851	none	NaN	NaN
112	6	60	17	kitchen	sun_aarfiyshqohlwkmo.tif	28688.227651	28688.486112	28690.471882	14-Apr-2025 16:01:13	28474.101800	214.125850	none	NaN	NaN
112	6	61	13	kitchen	labelme_rykdqxenmhulbdn.tif	28690.485905	28690.744408	28692.730583	14-Apr-2025 16:01:13	28474.101800	216.384105	none	NaN	NaN
112	6	62	34	kitchen	sun_aexklacwqwezaorf.tif	28692.744347	28693.002746	28694.988500	14-Apr-2025 16:01:13	28474.101800	218.642547	none	NaN	NaN
112	6	63	53	kitchen	sun_aunzlwrbjumxhwdj.tif	28694.994191	28695.252596	28697.238482	14-Apr-2025 16:01:13	28474.101800	220.892391	6	28698.801829	0.000000
112	6	64	41	kitchen	sun_ahljzhgcdpomplvg.tif	28704.269072	28704.527502	28706.512822	14-Apr-2025 16:01:13	28474.101800	230.167272	none	NaN	NaN
112	6	65	12	kitchen	labelme_kxvouciolcpqplr.tif	28706.519292	28706.778029	28708.763141	14-Apr-2025 16:01:13	28474.101800	232.417492	none	NaN	NaN
112	6	66	56	kitchen	sun_awcpdzzznmweyyhv.tif	28708.769240	28709.027562	28711.013589	14-Apr-2025 16:01:13	28474.101800	234.667439	6	28712.812020	0.000000
112	6	67	18	kitchen	sun_aaxxjlsuzvqlgylf.tif	28718.036243	28718.294568	28720.280323	14-Apr-2025 16:01:13	28474.101800	243.934442	none	NaN	NaN
112	6	68	15	kitchen	sun_aamedkxepzlwuxes.tif	28720.286167	28720.544554	28722.530181	14-Apr-2025 16:01:13	28474.101800	246.184367	none	NaN	NaN
112	6	69	46	kitchen	sun_ajcbwwvdlsvjyzje.tif	28722.536178	28722.794546	28724.780622	14-Apr-2025 16:01:13	28474.101800	248.434377	none	NaN	NaN
112	6	70	60	kitchen	sun_azmutvzbxypaceni.tif	28724.786190	28725.044539	28727.030769	14-Apr-2025 16:01:13	28474.101800	250.684390	none	NaN	NaN
112	6	71	27	kitchen	sun_acxkpeoqbwcxfvip.tif	28727.044519	28727.302470	28729.289062	14-Apr-2025 16:01:13	28474.101800	252.942719	none	NaN	NaN
112	6	72	36	kitchen	sun_aggjlwcdjsjcaemh.tif	28729.302458	28729.561162	28731.546322	14-Apr-2025 16:01:13	28474.101800	255.200657	none	NaN	NaN
112	6	73	14	kitchen	sun_aadbddgrdsjugojn.tif	28731.552408	28731.811135	28733.796665	14-Apr-2025 16:01:13	28474.101800	257.450607	none	NaN	NaN
112	6	74	26	kitchen	sun_acwjdupvyjsugpay.tif	28733.802766	28734.061130	28736.047205	14-Apr-2025 16:01:13	28474.101800	259.700965	none	NaN	NaN
112	6	75	54	kitchen	sun_auticobqsbwgoppi.tif	28736.052332	28736.311116	28738.296598	14-Apr-2025 16:01:13	28474.101800	261.950532	none	NaN	NaN
112	6	76	45	kitchen	sun_aixorpehvfykdynp.tif	28738.302746	28738.560699	28740.547189	14-Apr-2025 16:01:13	28474.101800	264.200945	none	NaN	NaN
112	6	77	59	kitchen	sun_aypmqwcualkenuoe.tif	28740.560664	28740.818912	28742.805254	14-Apr-2025 16:01:13	28474.101800	266.458864	none	NaN	NaN
112	6	78	58	kitchen	sun_aymvwlarqodbwuoc.tif	28742.810550	28743.068889	28745.054556	14-Apr-2025 16:01:13	28474.101800	268.708750	none	NaN	NaN
112	6	79	50	kitchen	sun_amjjdeyrggfqgmom.tif	28745.060535	28745.318856	28747.304653	14-Apr-2025 16:01:13	28474.101800	270.958734	none	NaN	NaN
112	6	80	49	kitchen	sun_akcjzhbbjlbogpdi.tif	28747.310526	28747.569358	28749.554860	14-Apr-2025 16:01:13	28474.101800	273.208725	none	NaN	NaN
112	6	81	20	kitchen	sun_abdxkyyxwfskuaqb.tif	28749.568765	28749.827156	28751.812582	14-Apr-2025 16:01:13	28474.101800	275.466965	none	NaN	NaN
112	6	82	25	kitchen	sun_acgtpgfybqjmzeyw.tif	28751.827291	28752.085412	28754.071130	14-Apr-2025 16:01:13	28474.101800	277.725491	none	NaN	NaN
112	6	83	40	kitchen	sun_ahdycvpopffkzzsu.tif	28754.077150	28754.335433	28756.321616	14-Apr-2025 16:01:13	28474.101800	279.975350	none	NaN	NaN
112	6	84	47	kitchen	sun_ajkqhtgcbgpcwrwn.tif	28756.335435	28756.593792	28758.579982	14-Apr-2025 16:01:13	28474.101800	282.233634	6	28761.002267	1.000000
112	6	85	38	kitchen	sun_agubuxuukhzyzpdp.tif	28765.610574	28765.868745	28767.854498	14-Apr-2025 16:01:13	28474.101800	291.508774	none	NaN	NaN
112	6	86	30	kitchen	sun_aegoxogugdkwpmpj.tif	28767.860436	28768.118869	28770.104829	14-Apr-2025 16:01:13	28474.101800	293.758636	none	NaN	NaN
112	6	87	32	kitchen	sun_aenotlpyftoioydp.tif	28770.110421	28770.368810	28772.355070	14-Apr-2025 16:01:13	28474.101800	296.008621	none	NaN	NaN
112	6	88	52	kitchen	sun_auaiucuqpdausiva.tif	28772.360401	28772.619167	28774.604994	14-Apr-2025 16:01:13	28474.101800	298.258600	none	NaN	NaN
112	6	89	16	kitchen	sun_aapllqyqlykszopd.tif	28774.618937	28774.877475	28776.863308	14-Apr-2025 16:01:13	28474.101800	300.517136	none	NaN	NaN
112	6	90	28	kitchen	sun_adgqasybjyktddhj.tif	28776.868780	28777.127467	28779.112854	14-Apr-2025 16:01:13	28474.101800	302.766980	none	NaN	NaN
112	6	91	11	kitchen	labelme_brsyyvweiuaazfr.tif	28779.118664	28779.377444	28781.363251	14-Apr-2025 16:01:13	28474.101800	305.016864	none	NaN	NaN
112	6	92	29	kitchen	sun_admlmbcdswaszruo.tif	28781.377430	28781.635759	28783.621910	14-Apr-2025 16:01:13	28474.101800	307.275630	none	NaN	NaN
112	6	93	23	kitchen	sun_abrcnpqqhmjwekyf.tif	28783.635851	28783.893686	28785.880052	14-Apr-2025 16:01:13	28474.101800	309.534051	none	NaN	NaN
112	6	94	19	kitchen	sun_abdenxonkemggwsq.tif	28785.885333	28786.143685	28788.129706	14-Apr-2025 16:01:13	28474.101800	311.783532	none	NaN	NaN
112	6	95	48	kitchen	sun_akchetnepxlcxhsu.tif	28788.135234	28788.394027	28790.379517	14-Apr-2025 16:01:13	28474.101800	314.033434	none	NaN	NaN
112	6	96	57	kitchen	sun_axyyrmzcupyhlivc.tif	28790.385681	28790.643643	28792.629562	14-Apr-2025 16:01:13	28474.101800	316.283881	none	NaN	NaN
112	6	97	21	kitchen	sun_abftihopvusyfakt.tif	28792.635241	28792.893632	28794.879768	14-Apr-2025 16:01:13	28474.101800	318.533441	none	NaN	NaN
112	6	98	35	kitchen	sun_afuyedyxivkhecmu.tif	28794.885644	28795.143586	28797.129987	14-Apr-2025 16:01:13	28474.101800	320.783844	none	NaN	NaN
112	6	99	43	kitchen	sun_ahspylgoovwmwvgk.tif	28797.135542	28797.393930	28799.380131	14-Apr-2025 16:01:13	28474.101800	323.033742	none	NaN	NaN
112	6	100	22	kitchen	sun_abpwyqmlzafvklqo.tif	28799.385611	28799.643957	28801.629470	14-Apr-2025 16:01:13	28474.101800	325.283811	6	28802.770634	0.000000
