subject	run	trial	texture	category	image	trialOnset	itiOnset	trialEnd	triggerDate	triggerTimeStamp	Onsets	responseKey	responseTime	accuracy
102	12	1	25	kitchen	sun_acgtpgfybqjmzeyw.tif	16315.531427	16315.790183	16317.775377	17-Mar-2025 12:16:20	16311.509866	4.021562	none	NaN	NaN
102	12	2	15	kitchen	sun_aamedkxepzlwuxes.tif	16317.781912	16318.040262	16320.026279	17-Mar-2025 12:16:20	16311.509866	6.272047	none	NaN	NaN
102	12	3	32	kitchen	sun_aenotlpyftoioydp.tif	16320.031705	16320.289627	16322.275987	17-Mar-2025 12:16:20	16311.509866	8.521839	none	NaN	NaN
102	12	4	18	kitchen	sun_aaxxjlsuzvqlgylf.tif	16322.281274	16322.539607	16324.525423	17-Mar-2025 12:16:20	16311.509866	10.771409	none	NaN	NaN
102	12	5	60	kitchen	sun_azmutvzbxypaceni.tif	16324.539547	16324.797887	16326.783940	17-Mar-2025 12:16:20	16311.509866	13.029681	none	NaN	NaN
102	12	6	34	kitchen	sun_aexklacwqwezaorf.tif	16326.789556	16327.047890	16329.033552	17-Mar-2025 12:16:20	16311.509866	15.279691	none	NaN	NaN
102	12	7	33	kitchen	sun_aeqdocilnnpuvuhx.tif	16329.039578	16329.297776	16331.284192	17-Mar-2025 12:16:20	16311.509866	17.529713	5	16332.173468	1.000000
102	12	8	20	kitchen	sun_abdxkyyxwfskuaqb.tif	16338.314468	16338.572820	16340.558544	17-Mar-2025 12:16:20	16311.509866	26.804603	none	NaN	NaN
102	12	9	11	kitchen	labelme_brsyyvweiuaazfr.tif	16340.564488	16340.822761	16342.808967	17-Mar-2025 12:16:20	16311.509866	29.054622	none	NaN	NaN
102	12	10	30	kitchen	sun_aegoxogugdkwpmpj.tif	16342.814379	16343.072742	16345.058139	17-Mar-2025 12:16:20	16311.509866	31.304514	none	NaN	NaN
102	12	11	53	kitchen	sun_aunzlwrbjumxhwdj.tif	16345.064415	16345.322721	16347.308785	17-Mar-2025 12:16:20	16311.509866	33.554549	none	NaN	NaN
102	12	12	13	kitchen	labelme_rykdqxenmhulbdn.tif	16347.314421	16347.572718	16349.558638	17-Mar-2025 12:16:20	16311.509866	35.804556	none	NaN	NaN
102	12	13	21	kitchen	sun_abftihopvusyfakt.tif	16349.564369	16349.822709	16351.808827	17-Mar-2025 12:16:20	16311.509866	38.054503	none	NaN	NaN
102	12	14	39	kitchen	sun_agzzivivdpnawacl.tif	16351.814776	16352.072827	16354.058906	17-Mar-2025 12:16:20	16311.509866	40.304910	none	NaN	NaN
102	12	15	35	kitchen	sun_afuyedyxivkhecmu.tif	16354.064406	16354.323191	16356.308935	17-Mar-2025 12:16:20	16311.509866	42.554540	none	NaN	NaN
102	12	16	42	kitchen	sun_ahpczsiumwwocjkv.tif	16356.314416	16356.572782	16358.558509	17-Mar-2025 12:16:20	16311.509866	44.804550	none	NaN	NaN
102	12	17	43	kitchen	sun_ahspylgoovwmwvgk.tif	16358.564821	16358.823252	16360.809305	17-Mar-2025 12:16:20	16311.509866	47.054955	none	NaN	NaN
102	12	18	58	kitchen	sun_aymvwlarqodbwuoc.tif	16360.814451	16361.072761	16363.058449	17-Mar-2025 12:16:20	16311.509866	49.304586	none	NaN	NaN
102	12	19	51	kitchen	sun_aqeaevwwwjoqhzvl.tif	16363.073210	16363.331124	16365.317292	17-Mar-2025 12:16:20	16311.509866	51.563345	none	NaN	NaN
102	12	20	49	kitchen	sun_akcjzhbbjlbogpdi.tif	16365.322693	16365.581482	16367.566948	17-Mar-2025 12:16:20	16311.509866	53.812827	none	NaN	NaN
102	12	21	55	kitchen	sun_avszsnwsbuqfgzbn.tif	16367.572691	16367.831498	16369.816719	17-Mar-2025 12:16:20	16311.509866	56.062825	none	NaN	NaN
102	12	22	56	kitchen	sun_awcpdzzznmweyyhv.tif	16369.831022	16370.089805	16372.075255	17-Mar-2025 12:16:20	16311.509866	58.321156	none	NaN	NaN
102	12	23	50	kitchen	sun_amjjdeyrggfqgmom.tif	16372.080994	16372.339696	16374.325253	17-Mar-2025 12:16:20	16311.509866	60.571129	6	16375.522831	1.000000
102	12	24	57	kitchen	sun_axyyrmzcupyhlivc.tif	16381.355885	16381.614142	16383.600059	17-Mar-2025 12:16:20	16311.509866	69.846019	none	NaN	NaN
102	12	25	59	kitchen	sun_aypmqwcualkenuoe.tif	16383.605842	16383.864080	16385.849605	17-Mar-2025 12:16:20	16311.509866	72.095976	6	16387.160175	1.000000
102	12	26	37	kitchen	sun_agorklincwxrdtga.tif	16392.880593	16393.138957	16395.124432	17-Mar-2025 12:16:20	16311.509866	81.370728	5	16396.348290	0.000000
102	12	27	28	kitchen	sun_adgqasybjyktddhj.tif	16402.155613	16402.413944	16404.400044	17-Mar-2025 12:16:20	16311.509866	90.645747	none	NaN	NaN
102	12	28	26	kitchen	sun_acwjdupvyjsugpay.tif	16404.405542	16404.663909	16406.649344	17-Mar-2025 12:16:20	16311.509866	92.895676	none	NaN	NaN
102	12	29	14	kitchen	sun_aadbddgrdsjugojn.tif	16406.663927	16406.922380	16408.908345	17-Mar-2025 12:16:20	16311.509866	95.154061	5	16409.798817	1.000000
102	12	30	27	kitchen	sun_acxkpeoqbwcxfvip.tif	16415.930666	16416.188941	16418.174703	17-Mar-2025 12:16:20	16311.509866	104.420801	none	NaN	NaN
102	12	31	22	kitchen	sun_abpwyqmlzafvklqo.tif	16418.180886	16418.439409	16420.424790	17-Mar-2025 12:16:20	16311.509866	106.671021	none	NaN	NaN
102	12	32	45	kitchen	sun_aixorpehvfykdynp.tif	16420.430917	16420.688934	16422.674986	17-Mar-2025 12:16:20	16311.509866	108.921052	none	NaN	NaN
102	12	33	36	kitchen	sun_aggjlwcdjsjcaemh.tif	16422.680527	16422.939383	16424.924477	17-Mar-2025 12:16:20	16311.509866	111.170661	none	NaN	NaN
102	12	34	41	kitchen	sun_ahljzhgcdpomplvg.tif	16424.930898	16425.189356	16427.175434	17-Mar-2025 12:16:20	16311.509866	113.421032	none	NaN	NaN
102	12	35	40	kitchen	sun_ahdycvpopffkzzsu.tif	16427.180514	16427.439287	16429.424646	17-Mar-2025 12:16:20	16311.509866	115.670649	none	NaN	NaN
102	12	36	12	kitchen	labelme_kxvouciolcpqplr.tif	16429.430851	16429.688835	16431.674721	17-Mar-2025 12:16:20	16311.509866	117.920985	none	NaN	NaN
102	12	37	31	kitchen	sun_aehawpgmrlhlvcow.tif	16431.680491	16431.939321	16433.924988	17-Mar-2025 12:16:20	16311.509866	120.170625	none	NaN	NaN
102	12	38	47	kitchen	sun_ajkqhtgcbgpcwrwn.tif	16433.930999	16434.189278	16436.174901	17-Mar-2025 12:16:20	16311.509866	122.421133	none	NaN	NaN
102	12	39	29	kitchen	sun_admlmbcdswaszruo.tif	16436.188796	16436.447598	16438.433341	17-Mar-2025 12:16:20	16311.509866	124.678930	none	NaN	NaN
102	12	40	38	kitchen	sun_agubuxuukhzyzpdp.tif	16438.439057	16438.697481	16440.682870	17-Mar-2025 12:16:20	16311.509866	126.929192	none	NaN	NaN
102	12	41	48	kitchen	sun_akchetnepxlcxhsu.tif	16440.688579	16440.955496	16442.933009	17-Mar-2025 12:16:20	16311.509866	129.178714	none	NaN	NaN
102	12	42	24	kitchen	sun_acfmftudsenhrfhy.tif	16442.946947	16443.205263	16445.191395	17-Mar-2025 12:16:20	16311.509866	131.437082	none	NaN	NaN
102	12	43	17	kitchen	sun_aarfiyshqohlwkmo.tif	16445.196867	16445.455184	16447.440748	17-Mar-2025 12:16:20	16311.509866	133.687001	none	NaN	NaN
102	12	44	16	kitchen	sun_aapllqyqlykszopd.tif	16447.446997	16447.705225	16449.690905	17-Mar-2025 12:16:20	16311.509866	135.937131	none	NaN	NaN
102	12	45	23	kitchen	sun_abrcnpqqhmjwekyf.tif	16449.705355	16449.963495	16451.949609	17-Mar-2025 12:16:20	16311.509866	138.195490	none	NaN	NaN
102	12	46	46	kitchen	sun_ajcbwwvdlsvjyzje.tif	16451.963535	16452.221780	16454.208109	17-Mar-2025 12:16:20	16311.509866	140.453670	none	NaN	NaN
102	12	47	19	kitchen	sun_abdenxonkemggwsq.tif	16454.213573	16454.471833	16456.457857	17-Mar-2025 12:16:20	16311.509866	142.703707	none	NaN	NaN
102	12	48	54	kitchen	sun_auticobqsbwgoppi.tif	16456.463594	16456.721807	16458.707839	17-Mar-2025 12:16:20	16311.509866	144.953729	none	NaN	NaN
102	12	49	44	kitchen	sun_ahywdevtimnqcsln.tif	16458.721904	16458.980142	16460.965829	17-Mar-2025 12:16:20	16311.509866	147.212039	none	NaN	NaN
102	12	50	52	kitchen	sun_auaiucuqpdausiva.tif	16460.971772	16461.230126	16463.216122	17-Mar-2025 12:16:20	16311.509866	149.461906	none	NaN	NaN
102	12	51	56	kitchen	sun_awcpdzzznmweyyhv.tif	16463.221775	16463.480120	16465.466262	17-Mar-2025 12:16:20	16311.509866	151.711909	none	NaN	NaN
102	12	52	59	kitchen	sun_aypmqwcualkenuoe.tif	16465.480136	16465.738550	16467.724412	17-Mar-2025 12:16:20	16311.509866	153.970271	6	16468.706863	1.000000
102	12	53	14	kitchen	sun_aadbddgrdsjugojn.tif	16474.755065	16475.013843	16476.999262	17-Mar-2025 12:16:20	16311.509866	163.245200	none	NaN	NaN
102	12	54	39	kitchen	sun_agzzivivdpnawacl.tif	16477.005494	16477.263822	16479.249595	17-Mar-2025 12:16:20	16311.509866	165.495629	none	NaN	NaN
102	12	55	20	kitchen	sun_abdxkyyxwfskuaqb.tif	16479.263429	16479.522173	16481.507655	17-Mar-2025 12:16:20	16311.509866	167.753563	none	NaN	NaN
102	12	56	17	kitchen	sun_aarfiyshqohlwkmo.tif	16481.513750	16481.772125	16483.757531	17-Mar-2025 12:16:20	16311.509866	170.003885	none	NaN	NaN
102	12	57	37	kitchen	sun_agorklincwxrdtga.tif	16483.763773	16484.021725	16486.008331	17-Mar-2025 12:16:20	16311.509866	172.253908	none	NaN	NaN
102	12	58	11	kitchen	labelme_brsyyvweiuaazfr.tif	16486.013661	16486.272074	16488.257828	17-Mar-2025 12:16:20	16311.509866	174.503796	none	NaN	NaN
102	12	59	23	kitchen	sun_abrcnpqqhmjwekyf.tif	16488.263349	16488.521695	16490.507363	17-Mar-2025 12:16:20	16311.509866	176.753483	none	NaN	NaN
102	12	60	35	kitchen	sun_afuyedyxivkhecmu.tif	16490.513680	16490.771684	16492.757967	17-Mar-2025 12:16:20	16311.509866	179.003814	none	NaN	NaN
102	12	61	16	kitchen	sun_aapllqyqlykszopd.tif	16492.763665	16493.022027	16495.007685	17-Mar-2025 12:16:20	16311.509866	181.253800	none	NaN	NaN
102	12	62	24	kitchen	sun_acfmftudsenhrfhy.tif	16495.013745	16495.272012	16497.257678	17-Mar-2025 12:16:20	16311.509866	183.503879	none	NaN	NaN
102	12	63	50	kitchen	sun_amjjdeyrggfqgmom.tif	16497.263554	16497.521984	16499.507805	17-Mar-2025 12:16:20	16311.509866	185.753688	none	NaN	NaN
102	12	64	15	kitchen	sun_aamedkxepzlwuxes.tif	16499.513211	16499.771879	16501.757564	17-Mar-2025 12:16:20	16311.509866	188.003345	5	16502.595914	1.000000
102	12	65	49	kitchen	sun_akcjzhbbjlbogpdi.tif	16508.787987	16509.046374	16511.031799	17-Mar-2025 12:16:20	16311.509866	197.278121	none	NaN	NaN
102	12	66	48	kitchen	sun_akchetnepxlcxhsu.tif	16511.037979	16511.296457	16513.282186	17-Mar-2025 12:16:20	16311.509866	199.528113	none	NaN	NaN
102	12	67	52	kitchen	sun_auaiucuqpdausiva.tif	16513.288172	16513.546235	16515.532747	17-Mar-2025 12:16:20	16311.509866	201.778306	6	16516.803530	1.000000
102	12	68	19	kitchen	sun_abdenxonkemggwsq.tif	16522.571321	16522.829666	16524.815678	17-Mar-2025 12:16:20	16311.509866	211.061456	5	16525.953171	0.000000
102	12	69	32	kitchen	sun_aenotlpyftoioydp.tif	16531.837979	16532.096326	16534.082528	17-Mar-2025 12:16:20	16311.509866	220.328114	none	NaN	NaN
102	12	70	44	kitchen	sun_ahywdevtimnqcsln.tif	16534.096685	16534.354641	16536.341073	17-Mar-2025 12:16:20	16311.509866	222.586819	6	16537.205895	1.000000
102	12	71	28	kitchen	sun_adgqasybjyktddhj.tif	16543.371190	16543.629566	16545.615014	17-Mar-2025 12:16:20	16311.509866	231.861325	none	NaN	NaN
102	12	72	33	kitchen	sun_aeqdocilnnpuvuhx.tif	16545.621181	16545.879920	16547.865143	17-Mar-2025 12:16:20	16311.509866	234.111315	5	16548.684349	1.000000
102	12	73	26	kitchen	sun_acwjdupvyjsugpay.tif	16554.887923	16555.146503	16557.131842	17-Mar-2025 12:16:20	16311.509866	243.378058	none	NaN	NaN
102	12	74	27	kitchen	sun_acxkpeoqbwcxfvip.tif	16557.137762	16557.396502	16559.382236	17-Mar-2025 12:16:20	16311.509866	245.627896	none	NaN	NaN
102	12	75	18	kitchen	sun_aaxxjlsuzvqlgylf.tif	16559.387704	16559.646096	16561.631624	17-Mar-2025 12:16:20	16311.509866	247.877838	none	NaN	NaN
102	12	76	21	kitchen	sun_abftihopvusyfakt.tif	16561.637684	16561.895939	16563.882130	17-Mar-2025 12:16:20	16311.509866	250.127819	none	NaN	NaN
102	12	77	38	kitchen	sun_agubuxuukhzyzpdp.tif	16563.895928	16564.154282	16566.140189	17-Mar-2025 12:16:20	16311.509866	252.386062	none	NaN	NaN
102	12	78	31	kitchen	sun_aehawpgmrlhlvcow.tif	16566.146000	16566.404228	16568.390528	17-Mar-2025 12:16:20	16311.509866	254.636135	none	NaN	NaN
102	12	79	30	kitchen	sun_aegoxogugdkwpmpj.tif	16568.404179	16568.662500	16570.648253	17-Mar-2025 12:16:20	16311.509866	256.894313	none	NaN	NaN
102	12	80	47	kitchen	sun_ajkqhtgcbgpcwrwn.tif	16570.654243	16570.912516	16572.898223	17-Mar-2025 12:16:20	16311.509866	259.144377	none	NaN	NaN
102	12	81	13	kitchen	labelme_rykdqxenmhulbdn.tif	16572.904119	16573.162564	16575.148013	17-Mar-2025 12:16:20	16311.509866	261.394253	none	NaN	NaN
102	12	82	41	kitchen	sun_ahljzhgcdpomplvg.tif	16575.154214	16575.412482	16577.398779	17-Mar-2025 12:16:20	16311.509866	263.644349	none	NaN	NaN
102	12	83	25	kitchen	sun_acgtpgfybqjmzeyw.tif	16577.404124	16577.662410	16579.648116	17-Mar-2025 12:16:20	16311.509866	265.894258	none	NaN	NaN
102	12	84	60	kitchen	sun_azmutvzbxypaceni.tif	16579.654226	16579.912462	16581.898064	17-Mar-2025 12:16:20	16311.509866	268.144361	none	NaN	NaN
102	12	85	40	kitchen	sun_ahdycvpopffkzzsu.tif	16581.904111	16582.162525	16584.148646	17-Mar-2025 12:16:20	16311.509866	270.394246	6	16585.239552	1.000000
102	12	86	45	kitchen	sun_aixorpehvfykdynp.tif	16591.170767	16591.429168	16593.414891	17-Mar-2025 12:16:20	16311.509866	279.660902	none	NaN	NaN
102	12	87	55	kitchen	sun_avszsnwsbuqfgzbn.tif	16593.421148	16593.679573	16595.665635	17-Mar-2025 12:16:20	16311.509866	281.911282	none	NaN	NaN
102	12	88	12	kitchen	labelme_kxvouciolcpqplr.tif	16595.671156	16595.929123	16597.915227	17-Mar-2025 12:16:20	16311.509866	284.161290	6	16598.877521	0.000000
102	12	89	22	kitchen	sun_abpwyqmlzafvklqo.tif	16604.937327	16605.196179	16607.181095	17-Mar-2025 12:16:20	16311.509866	293.427461	none	NaN	NaN
102	12	90	54	kitchen	sun_auticobqsbwgoppi.tif	16607.187643	16607.446068	16609.432111	17-Mar-2025 12:16:20	16311.509866	295.677778	none	NaN	NaN
102	12	91	42	kitchen	sun_ahpczsiumwwocjkv.tif	16609.437312	16609.696161	16611.681321	17-Mar-2025 12:16:20	16311.509866	297.927447	none	NaN	NaN
102	12	92	34	kitchen	sun_aexklacwqwezaorf.tif	16611.687692	16611.946116	16613.932168	17-Mar-2025 12:16:20	16311.509866	300.177826	none	NaN	NaN
102	12	93	29	kitchen	sun_admlmbcdswaszruo.tif	16613.945638	16614.204431	16616.190183	17-Mar-2025 12:16:20	16311.509866	302.435773	none	NaN	NaN
102	12	94	57	kitchen	sun_axyyrmzcupyhlivc.tif	16616.196134	16616.453948	16618.439993	17-Mar-2025 12:16:20	16311.509866	304.686269	none	NaN	NaN
102	12	95	58	kitchen	sun_aymvwlarqodbwuoc.tif	16618.445579	16618.703933	16620.689559	17-Mar-2025 12:16:20	16311.509866	306.935713	5	16621.645319	1.000000
102	12	96	46	kitchen	sun_ajcbwwvdlsvjyzje.tif	16627.720517	16627.978786	16629.964911	17-Mar-2025 12:16:20	16311.509866	316.210652	5	16631.524514	1.000000
102	12	97	43	kitchen	sun_ahspylgoovwmwvgk.tif	16636.995436	16637.253624	16639.239991	17-Mar-2025 12:16:20	16311.509866	325.485571	none	NaN	NaN
102	12	98	36	kitchen	sun_aggjlwcdjsjcaemh.tif	16639.245317	16639.503614	16641.489386	17-Mar-2025 12:16:20	16311.509866	327.735452	none	NaN	NaN
102	12	99	53	kitchen	sun_aunzlwrbjumxhwdj.tif	16641.495252	16641.753653	16643.739196	17-Mar-2025 12:16:20	16311.509866	329.985387	none	NaN	NaN
102	12	100	51	kitchen	sun_aqeaevwwwjoqhzvl.tif	16643.745290	16644.003584	16645.989370	17-Mar-2025 12:16:20	16311.509866	332.235424	none	NaN	NaN
