subject	run	trial	texture	category	image	trialOnset	itiOnset	trialEnd	triggerDate	triggerTimeStamp	Onsets	responseKey	responseTime	accuracy
119	10	1	23	kitchen	sun_abrcnpqqhmjwekyf.tif	20322.798867	20323.057044	20325.043267	14-May-2025 17:48:56	20318.770234	4.028633	none	NaN	NaN
119	10	2	12	kitchen	labelme_kxvouciolcpqplr.tif	20325.056635	20325.314973	20327.301000	14-May-2025 17:48:56	20318.770234	6.286400	none	NaN	NaN
119	10	3	49	kitchen	sun_akcjzhbbjlbogpdi.tif	20327.307031	20327.565528	20329.551377	14-May-2025 17:48:56	20318.770234	8.536797	none	NaN	NaN
119	10	4	20	kitchen	sun_abdxkyyxwfskuaqb.tif	20329.556535	20329.815396	20331.800468	14-May-2025 17:48:56	20318.770234	10.786300	5	20332.699599	1.000000
119	10	5	45	kitchen	sun_aixorpehvfykdynp.tif	20338.832129	20339.090320	20341.076039	14-May-2025 17:48:56	20318.770234	20.061895	none	NaN	NaN
119	10	6	47	kitchen	sun_ajkqhtgcbgpcwrwn.tif	20341.081428	20341.339833	20343.325501	14-May-2025 17:48:56	20318.770234	22.311194	none	NaN	NaN
119	10	7	32	kitchen	sun_aenotlpyftoioydp.tif	20343.331436	20343.589817	20345.575584	14-May-2025 17:48:56	20318.770234	24.561202	5	20346.974162	0.000000
119	10	8	60	kitchen	sun_azmutvzbxypaceni.tif	20352.606403	20352.864745	20354.850357	14-May-2025 17:48:56	20318.770234	33.836169	none	NaN	NaN
119	10	9	19	kitchen	sun_abdenxonkemggwsq.tif	20354.856327	20355.114649	20357.100453	14-May-2025 17:48:56	20318.770234	36.086092	none	NaN	NaN
119	10	10	17	kitchen	sun_aarfiyshqohlwkmo.tif	20357.106370	20357.364704	20359.350380	14-May-2025 17:48:56	20318.770234	38.336136	5	20360.566154	1.000000
119	10	11	53	kitchen	sun_aunzlwrbjumxhwdj.tif	20366.372948	20366.631308	20368.616791	14-May-2025 17:48:56	20318.770234	47.602713	none	NaN	NaN
119	10	12	16	kitchen	sun_aapllqyqlykszopd.tif	20368.622940	20368.881278	20370.867136	14-May-2025 17:48:56	20318.770234	49.852705	none	NaN	NaN
119	10	13	28	kitchen	sun_adgqasybjyktddhj.tif	20370.873248	20371.131269	20373.117662	14-May-2025 17:48:56	20318.770234	52.103013	none	NaN	NaN
119	10	14	57	kitchen	sun_axyyrmzcupyhlivc.tif	20373.123307	20373.381258	20375.367729	14-May-2025 17:48:56	20318.770234	54.353073	none	NaN	NaN
119	10	15	46	kitchen	sun_ajcbwwvdlsvjyzje.tif	20375.381225	20375.639942	20377.625177	14-May-2025 17:48:56	20318.770234	56.610991	none	NaN	NaN
119	10	16	44	kitchen	sun_ahywdevtimnqcsln.tif	20377.631194	20377.889551	20379.875665	14-May-2025 17:48:56	20318.770234	58.860960	none	NaN	NaN
119	10	17	59	kitchen	sun_aypmqwcualkenuoe.tif	20379.881504	20380.139906	20382.125405	14-May-2025 17:48:56	20318.770234	61.111269	none	NaN	NaN
119	10	18	55	kitchen	sun_avszsnwsbuqfgzbn.tif	20382.131505	20382.389908	20384.375371	14-May-2025 17:48:56	20318.770234	63.361270	5	20385.629336	0.000000
119	10	19	33	kitchen	sun_aeqdocilnnpuvuhx.tif	20391.406046	20391.664894	20393.650110	14-May-2025 17:48:56	20318.770234	72.635812	none	NaN	NaN
119	10	20	36	kitchen	sun_aggjlwcdjsjcaemh.tif	20393.656033	20393.914375	20395.899911	14-May-2025 17:48:56	20318.770234	74.885798	none	NaN	NaN
119	10	21	35	kitchen	sun_afuyedyxivkhecmu.tif	20395.906497	20396.164860	20398.150301	14-May-2025 17:48:56	20318.770234	77.136263	none	NaN	NaN
119	10	22	15	kitchen	sun_aamedkxepzlwuxes.tif	20398.155982	20398.414857	20400.400510	14-May-2025 17:48:56	20318.770234	79.385748	none	NaN	NaN
119	10	23	24	kitchen	sun_acfmftudsenhrfhy.tif	20400.405951	20400.664355	20402.649745	14-May-2025 17:48:56	20318.770234	81.635717	none	NaN	NaN
119	10	24	38	kitchen	sun_agubuxuukhzyzpdp.tif	20402.655979	20402.914339	20404.900140	14-May-2025 17:48:56	20318.770234	83.885745	none	NaN	NaN
119	10	25	42	kitchen	sun_ahpczsiumwwocjkv.tif	20404.905949	20405.164317	20407.150019	14-May-2025 17:48:56	20318.770234	86.135715	none	NaN	NaN
119	10	26	31	kitchen	sun_aehawpgmrlhlvcow.tif	20407.155971	20407.414299	20409.399945	14-May-2025 17:48:56	20318.770234	88.385737	none	NaN	NaN
119	10	27	51	kitchen	sun_aqeaevwwwjoqhzvl.tif	20409.405931	20409.664290	20411.650256	14-May-2025 17:48:56	20318.770234	90.635697	none	NaN	NaN
119	10	28	40	kitchen	sun_ahdycvpopffkzzsu.tif	20411.664270	20411.922598	20413.908588	14-May-2025 17:48:56	20318.770234	92.894035	none	NaN	NaN
119	10	29	26	kitchen	sun_acwjdupvyjsugpay.tif	20413.922576	20414.180907	20416.166978	14-May-2025 17:48:56	20318.770234	95.152342	none	NaN	NaN
119	10	30	37	kitchen	sun_agorklincwxrdtga.tif	20416.172558	20416.430897	20418.416383	14-May-2025 17:48:56	20318.770234	97.402324	none	NaN	NaN
119	10	31	50	kitchen	sun_amjjdeyrggfqgmom.tif	20418.422517	20418.680875	20420.666292	14-May-2025 17:48:56	20318.770234	99.652283	none	NaN	NaN
119	10	32	13	kitchen	labelme_rykdqxenmhulbdn.tif	20420.680868	20420.939190	20422.924758	14-May-2025 17:48:56	20318.770234	101.910634	6	20424.665728	1.000000
119	10	33	39	kitchen	sun_agzzivivdpnawacl.tif	20429.955789	20430.214500	20432.200343	14-May-2025 17:48:56	20318.770234	111.185555	none	NaN	NaN
119	10	34	34	kitchen	sun_aexklacwqwezaorf.tif	20432.205723	20432.464477	20434.450235	14-May-2025 17:48:56	20318.770234	113.435489	none	NaN	NaN
119	10	35	21	kitchen	sun_abftihopvusyfakt.tif	20434.455711	20434.714456	20436.699996	14-May-2025 17:48:56	20318.770234	115.685476	none	NaN	NaN
119	10	36	30	kitchen	sun_aegoxogugdkwpmpj.tif	20436.705679	20436.964444	20438.949634	14-May-2025 17:48:56	20318.770234	117.935445	none	NaN	NaN
119	10	37	27	kitchen	sun_acxkpeoqbwcxfvip.tif	20438.956062	20439.214088	20441.199882	14-May-2025 17:48:56	20318.770234	120.185828	none	NaN	NaN
119	10	38	14	kitchen	sun_aadbddgrdsjugojn.tif	20441.214420	20441.472743	20443.458346	14-May-2025 17:48:56	20318.770234	122.444186	none	NaN	NaN
119	10	39	56	kitchen	sun_awcpdzzznmweyyhv.tif	20443.464007	20443.722730	20445.707822	14-May-2025 17:48:56	20318.770234	124.693773	none	NaN	NaN
119	10	40	18	kitchen	sun_aaxxjlsuzvqlgylf.tif	20445.714350	20445.972338	20447.958812	14-May-2025 17:48:56	20318.770234	126.944116	none	NaN	NaN
119	10	41	11	kitchen	labelme_brsyyvweiuaazfr.tif	20447.972685	20448.230621	20450.217148	14-May-2025 17:48:56	20318.770234	129.202451	6	20451.394503	1.000000
119	10	42	41	kitchen	sun_ahljzhgcdpomplvg.tif	20457.247227	20457.505945	20459.491207	14-May-2025 17:48:56	20318.770234	138.476992	none	NaN	NaN
119	10	43	25	kitchen	sun_acgtpgfybqjmzeyw.tif	20459.497581	20459.755938	20461.741811	14-May-2025 17:48:56	20318.770234	140.727347	5	20462.623455	1.000000
119	10	44	52	kitchen	sun_auaiucuqpdausiva.tif	20468.772174	20469.030467	20471.016221	14-May-2025 17:48:56	20318.770234	150.001940	none	NaN	NaN
119	10	45	48	kitchen	sun_akchetnepxlcxhsu.tif	20471.022071	20471.280459	20473.266479	14-May-2025 17:48:56	20318.770234	152.251836	none	NaN	NaN
119	10	46	54	kitchen	sun_auticobqsbwgoppi.tif	20473.272045	20473.530447	20475.516350	14-May-2025 17:48:56	20318.770234	154.501811	none	NaN	NaN
119	10	47	58	kitchen	sun_aymvwlarqodbwuoc.tif	20475.522045	20475.780430	20477.766550	14-May-2025 17:48:56	20318.770234	156.751811	none	NaN	NaN
119	10	48	43	kitchen	sun_ahspylgoovwmwvgk.tif	20477.772064	20478.030397	20480.015847	14-May-2025 17:48:56	20318.770234	159.001830	5	20480.843941	1.000000
119	10	49	29	kitchen	sun_admlmbcdswaszruo.tif	20487.038648	20487.296984	20489.283021	14-May-2025 17:48:56	20318.770234	168.268413	none	NaN	NaN
119	10	50	22	kitchen	sun_abpwyqmlzafvklqo.tif	20489.288641	20489.538591	20491.532776	14-May-2025 17:48:56	20318.770234	170.518407	none	NaN	NaN
119	10	51	46	kitchen	sun_ajcbwwvdlsvjyzje.tif	20491.538445	20491.797324	20493.782599	14-May-2025 17:48:56	20318.770234	172.768211	none	NaN	NaN
119	10	52	25	kitchen	sun_acgtpgfybqjmzeyw.tif	20493.796949	20494.055282	20496.040838	14-May-2025 17:48:56	20318.770234	175.026715	none	NaN	NaN
119	10	53	31	kitchen	sun_aehawpgmrlhlvcow.tif	20496.047166	20496.305627	20498.291183	14-May-2025 17:48:56	20318.770234	177.276932	none	NaN	NaN
119	10	54	36	kitchen	sun_aggjlwcdjsjcaemh.tif	20498.297225	20498.555621	20500.541216	14-May-2025 17:48:56	20318.770234	179.526991	6	20502.160928	1.000000
119	10	55	53	kitchen	sun_aunzlwrbjumxhwdj.tif	20507.572197	20507.830170	20509.816238	14-May-2025 17:48:56	20318.770234	188.801963	none	NaN	NaN
119	10	56	27	kitchen	sun_acxkpeoqbwcxfvip.tif	20509.822176	20510.080522	20512.065987	14-May-2025 17:48:56	20318.770234	191.051941	none	NaN	NaN
119	10	57	12	kitchen	labelme_kxvouciolcpqplr.tif	20512.071777	20512.330506	20514.315990	14-May-2025 17:48:56	20318.770234	193.301543	none	NaN	NaN
119	10	58	14	kitchen	sun_aadbddgrdsjugojn.tif	20514.330613	20514.588819	20516.575153	14-May-2025 17:48:56	20318.770234	195.560378	none	NaN	NaN
119	10	59	48	kitchen	sun_akchetnepxlcxhsu.tif	20516.588431	20516.847123	20518.832778	14-May-2025 17:48:56	20318.770234	197.818197	none	NaN	NaN
119	10	60	20	kitchen	sun_abdxkyyxwfskuaqb.tif	20518.838752	20519.097115	20521.082628	14-May-2025 17:48:56	20318.770234	200.068518	6	20522.216044	1.000000
119	10	61	44	kitchen	sun_ahywdevtimnqcsln.tif	20528.113319	20528.371665	20530.357478	14-May-2025 17:48:56	20318.770234	209.343085	none	NaN	NaN
119	10	62	52	kitchen	sun_auaiucuqpdausiva.tif	20530.363297	20530.621654	20532.607557	14-May-2025 17:48:56	20318.770234	211.593063	none	NaN	NaN
119	10	63	45	kitchen	sun_aixorpehvfykdynp.tif	20532.613277	20532.871581	20534.857144	14-May-2025 17:48:56	20318.770234	213.843042	none	NaN	NaN
119	10	64	47	kitchen	sun_ajkqhtgcbgpcwrwn.tif	20534.863272	20535.121610	20537.107489	14-May-2025 17:48:56	20318.770234	216.093037	5	20538.166524	1.000000
119	10	65	28	kitchen	sun_adgqasybjyktddhj.tif	20544.138208	20544.396533	20546.382197	14-May-2025 17:48:56	20318.770234	225.367974	none	NaN	NaN
119	10	66	33	kitchen	sun_aeqdocilnnpuvuhx.tif	20546.388149	20546.646508	20548.632066	14-May-2025 17:48:56	20318.770234	227.617915	6	20550.467732	1.000000
119	10	67	59	kitchen	sun_aypmqwcualkenuoe.tif	20555.663084	20555.921449	20557.906948	14-May-2025 17:48:56	20318.770234	236.892850	none	NaN	NaN
119	10	68	29	kitchen	sun_admlmbcdswaszruo.tif	20557.913007	20558.171849	20560.157326	14-May-2025 17:48:56	20318.770234	239.142773	none	NaN	NaN
119	10	69	55	kitchen	sun_avszsnwsbuqfgzbn.tif	20560.163030	20560.421398	20562.406982	14-May-2025 17:48:56	20318.770234	241.392796	none	NaN	NaN
119	10	70	35	kitchen	sun_afuyedyxivkhecmu.tif	20562.413404	20562.671851	20564.657221	14-May-2025 17:48:56	20318.770234	243.643169	5	20565.386221	1.000000
119	10	71	26	kitchen	sun_acwjdupvyjsugpay.tif	20571.687908	20571.946898	20573.932318	14-May-2025 17:48:56	20318.770234	252.917674	none	NaN	NaN
119	10	72	15	kitchen	sun_aamedkxepzlwuxes.tif	20573.937903	20574.196292	20576.182271	14-May-2025 17:48:56	20318.770234	255.167669	none	NaN	NaN
119	10	73	11	kitchen	labelme_brsyyvweiuaazfr.tif	20576.187884	20576.446751	20578.431831	14-May-2025 17:48:56	20318.770234	257.417650	none	NaN	NaN
119	10	74	40	kitchen	sun_ahdycvpopffkzzsu.tif	20578.437874	20578.696735	20580.682547	14-May-2025 17:48:56	20318.770234	259.667640	none	NaN	NaN
119	10	75	32	kitchen	sun_aenotlpyftoioydp.tif	20580.696124	20580.954407	20582.940548	14-May-2025 17:48:56	20318.770234	261.925890	none	NaN	NaN
119	10	76	58	kitchen	sun_aymvwlarqodbwuoc.tif	20582.946068	20583.204477	20585.190184	14-May-2025 17:48:56	20318.770234	264.175834	none	NaN	NaN
119	10	77	18	kitchen	sun_aaxxjlsuzvqlgylf.tif	20585.196051	20585.454412	20587.440111	14-May-2025 17:48:56	20318.770234	266.425817	none	NaN	NaN
119	10	78	51	kitchen	sun_aqeaevwwwjoqhzvl.tif	20587.446075	20587.704540	20589.689932	14-May-2025 17:48:56	20318.770234	268.675841	none	NaN	NaN
119	10	79	56	kitchen	sun_awcpdzzznmweyyhv.tif	20589.696069	20589.954379	20591.940499	14-May-2025 17:48:56	20318.770234	270.925834	none	NaN	NaN
119	10	80	42	kitchen	sun_ahpczsiumwwocjkv.tif	20591.946093	20592.204366	20594.190589	14-May-2025 17:48:56	20318.770234	273.175859	5	20595.330829	1.000000
119	10	81	60	kitchen	sun_azmutvzbxypaceni.tif	20601.220895	20601.479279	20603.465061	14-May-2025 17:48:56	20318.770234	282.450660	none	NaN	NaN
119	10	82	23	kitchen	sun_abrcnpqqhmjwekyf.tif	20603.470892	20603.729287	20605.715027	14-May-2025 17:48:56	20318.770234	284.700658	5	20606.457055	1.000000
119	10	83	49	kitchen	sun_akcjzhbbjlbogpdi.tif	20612.746234	20613.004314	20614.990233	14-May-2025 17:48:56	20318.770234	293.975999	none	NaN	NaN
119	10	84	50	kitchen	sun_amjjdeyrggfqgmom.tif	20614.995932	20615.254301	20617.239885	14-May-2025 17:48:56	20318.770234	296.225698	none	NaN	NaN
119	10	85	24	kitchen	sun_acfmftudsenhrfhy.tif	20617.245940	20617.504656	20619.490094	14-May-2025 17:48:56	20318.770234	298.475706	none	NaN	NaN
119	10	86	21	kitchen	sun_abftihopvusyfakt.tif	20619.495895	20619.754643	20621.739710	14-May-2025 17:48:56	20318.770234	300.725661	none	NaN	NaN
119	10	87	43	kitchen	sun_ahspylgoovwmwvgk.tif	20621.745915	20622.004727	20623.990176	14-May-2025 17:48:56	20318.770234	302.975680	none	NaN	NaN
119	10	88	41	kitchen	sun_ahljzhgcdpomplvg.tif	20623.995813	20624.254691	20626.240060	14-May-2025 17:48:56	20318.770234	305.225579	none	NaN	NaN
119	10	89	34	kitchen	sun_aexklacwqwezaorf.tif	20626.245855	20626.504585	20628.489960	14-May-2025 17:48:56	20318.770234	307.475621	none	NaN	NaN
119	10	90	38	kitchen	sun_agubuxuukhzyzpdp.tif	20628.496249	20628.754194	20630.740343	14-May-2025 17:48:56	20318.770234	309.726015	none	NaN	NaN
119	10	91	30	kitchen	sun_aegoxogugdkwpmpj.tif	20630.746299	20631.004638	20632.990094	14-May-2025 17:48:56	20318.770234	311.976065	none	NaN	NaN
119	10	92	13	kitchen	labelme_rykdqxenmhulbdn.tif	20632.996232	20633.254534	20635.240006	14-May-2025 17:48:56	20318.770234	314.225997	none	NaN	NaN
119	10	93	19	kitchen	sun_abdenxonkemggwsq.tif	20635.246180	20635.504551	20637.490492	14-May-2025 17:48:56	20318.770234	316.475946	none	NaN	NaN
119	10	94	39	kitchen	sun_agzzivivdpnawacl.tif	20637.495712	20637.754592	20639.739587	14-May-2025 17:48:56	20318.770234	318.725477	none	NaN	NaN
119	10	95	37	kitchen	sun_agorklincwxrdtga.tif	20639.745767	20640.004522	20641.990022	14-May-2025 17:48:56	20318.770234	320.975532	none	NaN	NaN
119	10	96	22	kitchen	sun_abpwyqmlzafvklqo.tif	20642.003942	20642.262285	20644.247842	14-May-2025 17:48:56	20318.770234	323.233708	none	NaN	NaN
119	10	97	16	kitchen	sun_aapllqyqlykszopd.tif	20644.253976	20644.512309	20646.498157	14-May-2025 17:48:56	20318.770234	325.483742	none	NaN	NaN
119	10	98	57	kitchen	sun_axyyrmzcupyhlivc.tif	20646.503973	20646.762305	20648.748496	14-May-2025 17:48:56	20318.770234	327.733739	none	NaN	NaN
119	10	99	54	kitchen	sun_auticobqsbwgoppi.tif	20648.762275	20649.020572	20651.006300	14-May-2025 17:48:56	20318.770234	329.992041	none	NaN	NaN
119	10	100	17	kitchen	sun_aarfiyshqohlwkmo.tif	20651.012265	20651.270580	20653.256354	14-May-2025 17:48:56	20318.770234	332.242031	none	NaN	NaN
