subject	run	trial	texture	category	image	trialOnset	itiOnset	trialEnd	triggerDate	triggerTimeStamp	Onsets	responseKey	responseTime	accuracy
119	1	1	13	bathroom	sun_aavhrsfjbserjtht.tif	16685.845262	16686.103697	16688.089752	14-May-2025 16:48:19	16681.553154	4.292108	none	NaN	NaN
119	1	2	49	bathroom	sun_asfwthctfqerjvxr.tif	16688.112010	16688.370324	16690.356580	14-May-2025 16:48:19	16681.553154	6.558855	none	NaN	NaN
119	1	3	25	bathroom	sun_agyqfjcfkdcydepw.tif	16690.370340	16690.628658	16692.614772	14-May-2025 16:48:19	16681.553154	8.817186	5	16694.164451	1.000000
119	1	4	38	bathroom	sun_anhioqovhscjqqwb.tif	16699.686853	16699.945198	16701.931166	14-May-2025 16:48:19	16681.553154	18.133698	none	NaN	NaN
119	1	5	37	bathroom	sun_amzlamotzwfkwjco.tif	16701.945228	16702.203549	16704.189883	14-May-2025 16:48:19	16681.553154	20.392074	none	NaN	NaN
119	1	6	16	bathroom	sun_acduarbnmmoglmiv.tif	16704.203494	16704.461883	16706.447949	14-May-2025 16:48:19	16681.553154	22.650340	none	NaN	NaN
119	1	7	41	bathroom	sun_aoybiabnpadelefl.tif	16706.461837	16706.720151	16708.706119	14-May-2025 16:48:19	16681.553154	24.908683	none	NaN	NaN
119	1	8	55	bathroom	sun_avhrdrntsqrjzccq.tif	16708.720134	16708.978600	16710.964449	14-May-2025 16:48:19	16681.553154	27.166980	none	NaN	NaN
119	1	9	60	bathroom	sun_azqyogdvyhahyram.tif	16710.970253	16711.229056	16713.214665	14-May-2025 16:48:19	16681.553154	29.417099	5	16714.568462	1.000000
119	1	10	29	bathroom	sun_ahqjwnzgolcaoidx.tif	16720.245643	16720.503938	16722.490044	14-May-2025 16:48:19	16681.553154	38.692489	none	NaN	NaN
119	1	11	15	bathroom	sun_abjtwfukuwddzted.tif	16722.495083	16722.753905	16724.738896	14-May-2025 16:48:19	16681.553154	40.941929	none	NaN	NaN
119	1	12	39	bathroom	sun_anryaplzeujmzfkd.tif	16724.745558	16725.003952	16726.989881	14-May-2025 16:48:19	16681.553154	43.192404	5	16728.257304	1.000000
119	1	13	17	bathroom	sun_acegryoqftbzowsg.tif	16734.020057	16734.278762	16736.264469	14-May-2025 16:48:19	16681.553154	52.466903	none	NaN	NaN
119	1	14	30	bathroom	sun_ajlawzvmubibwbpy.tif	16736.270355	16736.528740	16738.514730	14-May-2025 16:48:19	16681.553154	54.717200	none	NaN	NaN
119	1	15	23	bathroom	sun_aghyqhbptboemmoq.tif	16738.520003	16738.778782	16740.764385	14-May-2025 16:48:19	16681.553154	56.966849	none	NaN	NaN
119	1	16	53	bathroom	sun_ausgutylgojavyoq.tif	16740.769857	16741.028202	16743.014267	14-May-2025 16:48:19	16681.553154	59.216702	none	NaN	NaN
119	1	17	59	bathroom	sun_axyrejkiiaqiurjk.tif	16743.028306	16743.286523	16745.272564	14-May-2025 16:48:19	16681.553154	61.475152	none	NaN	NaN
119	1	18	58	bathroom	sun_axxbkopsgyouuebh.tif	16745.286543	16745.544937	16747.530417	14-May-2025 16:48:19	16681.553154	63.733389	none	NaN	NaN
119	1	19	14	bathroom	sun_abapwbhyhkfixyex.tif	16747.536589	16747.794937	16749.780463	14-May-2025 16:48:19	16681.553154	65.983435	none	NaN	NaN
119	1	20	33	bathroom	sun_aljolscmmzydegqp.tif	16749.786544	16750.044807	16752.030694	14-May-2025 16:48:19	16681.553154	68.233390	none	NaN	NaN
119	1	21	46	bathroom	sun_apmqjbnwghzuhhzh.tif	16752.036428	16752.294829	16754.280559	14-May-2025 16:48:19	16681.553154	70.483274	none	NaN	NaN
119	1	22	18	bathroom	sun_acgyywnybuveqsro.tif	16754.286504	16754.544777	16756.530513	14-May-2025 16:48:19	16681.553154	72.733350	none	NaN	NaN
119	1	23	19	bathroom	sun_aclfzgynxzxlbepz.tif	16756.544742	16756.803023	16758.789331	14-May-2025 16:48:19	16681.553154	74.991588	6	16760.192425	1.000000
119	1	24	11	bathroom	labelme_sfxiulhjbhlyiyt.tif	16765.819663	16766.077964	16768.064159	14-May-2025 16:48:19	16681.553154	84.266509	5	16769.002357	1.000000
119	1	25	27	bathroom	sun_ahcvzmoyaycdoftf.tif	16775.095254	16775.353496	16777.339515	14-May-2025 16:48:19	16681.553154	93.542100	none	NaN	NaN
119	1	26	21	bathroom	sun_aggnnqpdorgxpvce.tif	16777.345133	16777.603467	16779.589436	14-May-2025 16:48:19	16681.553154	95.791979	none	NaN	NaN
119	1	27	42	bathroom	sun_apeeialkgkuxddgh.tif	16779.594602	16779.853461	16781.838522	14-May-2025 16:48:19	16681.553154	98.041448	5	16783.345441	0.000000
119	1	28	56	bathroom	sun_awnqiikzaispgmwo.tif	16788.869558	16789.127906	16791.113446	14-May-2025 16:48:19	16681.553154	107.316404	none	NaN	NaN
119	1	29	44	bathroom	sun_apkruvsevgegsdwp.tif	16791.128321	16791.386209	16793.372570	14-May-2025 16:48:19	16681.553154	109.575167	none	NaN	NaN
119	1	30	20	bathroom	sun_afcoljnjfoxjtgja.tif	16793.377786	16793.636187	16795.621912	14-May-2025 16:48:19	16681.553154	111.824632	none	NaN	NaN
119	1	31	28	bathroom	sun_ahijqszoswveeyji.tif	16795.628137	16795.886148	16797.872310	14-May-2025 16:48:19	16681.553154	114.074983	none	NaN	NaN
119	1	32	26	bathroom	sun_ahaulkltgpkeeemi.tif	16797.877734	16798.136545	16800.122278	14-May-2025 16:48:19	16681.553154	116.324580	6	16801.903103	0.000000
119	1	33	22	bathroom	sun_agguqiubmwhqqunb.tif	16807.152548	16807.410966	16809.397163	14-May-2025 16:48:19	16681.553154	125.599394	none	NaN	NaN
119	1	34	47	bathroom	sun_apynckhmoftszqoq.tif	16809.410943	16809.669383	16811.655297	14-May-2025 16:48:19	16681.553154	127.857789	none	NaN	NaN
119	1	35	45	bathroom	sun_apkxzenqapsujocq.tif	16811.660880	16811.919248	16813.904721	14-May-2025 16:48:19	16681.553154	130.107726	none	NaN	NaN
119	1	36	34	bathroom	sun_alkosphxlxwjwgjd.tif	16813.919232	16814.177537	16816.163614	14-May-2025 16:48:19	16681.553154	132.366077	none	NaN	NaN
119	1	37	12	bathroom	sun_aapitsgbtktqubfy.tif	16816.169349	16816.427475	16818.414198	14-May-2025 16:48:19	16681.553154	134.616195	none	NaN	NaN
119	1	38	52	bathroom	sun_aunuadmjocsddsrl.tif	16818.427522	16818.685879	16820.671506	14-May-2025 16:48:19	16681.553154	136.874368	none	NaN	NaN
119	1	39	50	bathroom	sun_aspsyogrekjtfozg.tif	16820.685862	16820.944212	16822.930359	14-May-2025 16:48:19	16681.553154	139.132707	none	NaN	NaN
119	1	40	54	bathroom	sun_auzqhkafidnkrwmo.tif	16822.935754	16823.194161	16825.179553	14-May-2025 16:48:19	16681.553154	141.382600	none	NaN	NaN
119	1	41	31	bathroom	sun_akiytfaagpdsphgz.tif	16825.185737	16825.444159	16827.429549	14-May-2025 16:48:19	16681.553154	143.632583	none	NaN	NaN
119	1	42	48	bathroom	sun_aqrpegblszgcoujh.tif	16827.435853	16827.694077	16829.680414	14-May-2025 16:48:19	16681.553154	145.882699	none	NaN	NaN
119	1	43	35	bathroom	sun_alotolagknyrgtsk.tif	16829.685726	16829.944215	16831.930334	14-May-2025 16:48:19	16681.553154	148.132572	6	16833.403650	1.000000
119	1	44	24	bathroom	sun_agrwbmhcpmfuwmsg.tif	16838.952843	16839.211176	16841.196855	14-May-2025 16:48:19	16681.553154	157.399689	none	NaN	NaN
119	1	45	40	bathroom	sun_aofnryafpsjimzsb.tif	16841.202400	16841.460798	16843.446653	14-May-2025 16:48:19	16681.553154	159.649246	none	NaN	NaN
119	1	46	36	bathroom	sun_ambriybtogmepttm.tif	16843.452416	16843.710754	16845.696351	14-May-2025 16:48:19	16681.553154	161.899262	none	NaN	NaN
119	1	47	57	bathroom	sun_axldvoqbuvuggfmq.tif	16845.702759	16845.960750	16847.947569	14-May-2025 16:48:19	16681.553154	164.149605	none	NaN	NaN
119	1	48	43	bathroom	sun_apjevzvycyhuqghb.tif	16847.952665	16848.211122	16850.196692	14-May-2025 16:48:19	16681.553154	166.399511	none	NaN	NaN
119	1	49	32	bathroom	sun_aleqenyvunhactkl.tif	16850.202333	16850.460702	16852.446806	14-May-2025 16:48:19	16681.553154	168.649179	6	16853.764710	0.000000
119	1	50	51	bathroom	sun_atstyziqcmkahyxk.tif	16859.469203	16859.727566	16861.713059	14-May-2025 16:48:19	16681.553154	177.916049	none	NaN	NaN
119	1	51	59	bathroom	sun_axyrejkiiaqiurjk.tif	16861.718931	16861.977182	16863.963254	14-May-2025 16:48:19	16681.553154	180.165777	5	16865.286581	0.000000
119	1	52	11	bathroom	labelme_sfxiulhjbhlyiyt.tif	16870.993731	16871.252072	16873.237769	14-May-2025 16:48:19	16681.553154	189.440576	none	NaN	NaN
119	1	53	25	bathroom	sun_agyqfjcfkdcydepw.tif	16873.243789	16873.502159	16875.488258	14-May-2025 16:48:19	16681.553154	191.690635	none	NaN	NaN
119	1	54	16	bathroom	sun_acduarbnmmoglmiv.tif	16875.493767	16875.752049	16877.737925	14-May-2025 16:48:19	16681.553154	193.940613	none	NaN	NaN
119	1	55	21	bathroom	sun_aggnnqpdorgxpvce.tif	16877.743711	16878.001993	16879.987998	14-May-2025 16:48:19	16681.553154	196.190557	none	NaN	NaN
119	1	56	51	bathroom	sun_atstyziqcmkahyxk.tif	16879.993653	16880.251937	16882.238019	14-May-2025 16:48:19	16681.553154	198.440499	none	NaN	NaN
119	1	57	32	bathroom	sun_aleqenyvunhactkl.tif	16882.251906	16882.510277	16884.496471	14-May-2025 16:48:19	16681.553154	200.698752	none	NaN	NaN
119	1	58	33	bathroom	sun_aljolscmmzydegqp.tif	16884.510226	16884.768556	16886.754128	14-May-2025 16:48:19	16681.553154	202.957071	6	16888.157254	1.000000
119	1	59	18	bathroom	sun_acgyywnybuveqsro.tif	16893.785300	16894.044026	16896.029469	14-May-2025 16:48:19	16681.553154	212.232146	none	NaN	NaN
119	1	60	36	bathroom	sun_ambriybtogmepttm.tif	16896.035603	16896.294004	16898.279827	14-May-2025 16:48:19	16681.553154	214.482448	none	NaN	NaN
119	1	61	13	bathroom	sun_aavhrsfjbserjtht.tif	16898.293607	16898.551939	16900.537989	14-May-2025 16:48:19	16681.553154	216.740453	none	NaN	NaN
119	1	62	56	bathroom	sun_awnqiikzaispgmwo.tif	16900.543877	16900.802298	16902.788128	14-May-2025 16:48:19	16681.553154	218.990722	none	NaN	NaN
119	1	63	14	bathroom	sun_abapwbhyhkfixyex.tif	16902.793886	16903.052277	16905.038110	14-May-2025 16:48:19	16681.553154	221.240732	none	NaN	NaN
119	1	64	45	bathroom	sun_apkxzenqapsujocq.tif	16905.043445	16905.302253	16907.287350	14-May-2025 16:48:19	16681.553154	223.490291	6	16909.076930	1.000000
119	1	65	38	bathroom	sun_anhioqovhscjqqwb.tif	16914.310129	16914.568465	16916.554429	14-May-2025 16:48:19	16681.553154	232.756975	none	NaN	NaN
119	1	66	44	bathroom	sun_apkruvsevgegsdwp.tif	16916.560423	16916.818914	16918.804363	14-May-2025 16:48:19	16681.553154	235.007269	none	NaN	NaN
119	1	67	35	bathroom	sun_alotolagknyrgtsk.tif	16918.810435	16919.068431	16921.054623	14-May-2025 16:48:19	16681.553154	237.257281	none	NaN	NaN
119	1	68	55	bathroom	sun_avhrdrntsqrjzccq.tif	16921.068417	16921.326620	16923.312600	14-May-2025 16:48:19	16681.553154	239.515263	none	NaN	NaN
119	1	69	22	bathroom	sun_agguqiubmwhqqunb.tif	16923.326596	16923.585013	16925.570529	14-May-2025 16:48:19	16681.553154	241.773442	none	NaN	NaN
119	1	70	24	bathroom	sun_agrwbmhcpmfuwmsg.tif	16925.576561	16925.834999	16927.821152	14-May-2025 16:48:19	16681.553154	244.023407	none	NaN	NaN
119	1	71	47	bathroom	sun_apynckhmoftszqoq.tif	16927.834879	16928.093148	16930.078810	14-May-2025 16:48:19	16681.553154	246.281725	none	NaN	NaN
119	1	72	53	bathroom	sun_ausgutylgojavyoq.tif	16930.084881	16930.343308	16932.328801	14-May-2025 16:48:19	16681.553154	248.531727	none	NaN	NaN
119	1	73	15	bathroom	sun_abjtwfukuwddzted.tif	16932.334883	16932.593158	16934.578872	14-May-2025 16:48:19	16681.553154	250.781728	none	NaN	NaN
119	1	74	28	bathroom	sun_ahijqszoswveeyji.tif	16934.584866	16934.843152	16936.828628	14-May-2025 16:48:19	16681.553154	253.031712	6	16939.008849	0.000000
119	1	75	26	bathroom	sun_ahaulkltgpkeeemi.tif	16943.851469	16944.109844	16946.095255	14-May-2025 16:48:19	16681.553154	262.298314	none	NaN	NaN
119	1	76	58	bathroom	sun_axxbkopsgyouuebh.tif	16946.101424	16946.359711	16948.345840	14-May-2025 16:48:19	16681.553154	264.548270	none	NaN	NaN
119	1	77	17	bathroom	sun_acegryoqftbzowsg.tif	16948.351328	16948.609652	16950.595989	14-May-2025 16:48:19	16681.553154	266.798174	none	NaN	NaN
119	1	78	54	bathroom	sun_auzqhkafidnkrwmo.tif	16950.601405	16950.860156	16952.845369	14-May-2025 16:48:19	16681.553154	269.048251	none	NaN	NaN
119	1	79	30	bathroom	sun_ajlawzvmubibwbpy.tif	16952.859766	16953.118102	16955.103688	14-May-2025 16:48:19	16681.553154	271.306612	none	NaN	NaN
119	1	80	19	bathroom	sun_aclfzgynxzxlbepz.tif	16955.110211	16955.368501	16957.353972	14-May-2025 16:48:19	16681.553154	273.557057	none	NaN	NaN
119	1	81	60	bathroom	sun_azqyogdvyhahyram.tif	16957.360087	16957.618510	16959.604278	14-May-2025 16:48:19	16681.553154	275.806932	6	16960.703290	1.000000
119	1	82	50	bathroom	sun_aspsyogrekjtfozg.tif	16966.634621	16966.892973	16968.878861	14-May-2025 16:48:19	16681.553154	285.081466	none	NaN	NaN
119	1	83	42	bathroom	sun_apeeialkgkuxddgh.tif	16968.884995	16969.143378	16971.129097	14-May-2025 16:48:19	16681.553154	287.331841	none	NaN	NaN
119	1	84	49	bathroom	sun_asfwthctfqerjvxr.tif	16971.134551	16971.393359	16973.378337	14-May-2025 16:48:19	16681.553154	289.581397	none	NaN	NaN
119	1	85	27	bathroom	sun_ahcvzmoyaycdoftf.tif	16973.385040	16973.642913	16975.629430	14-May-2025 16:48:19	16681.553154	291.831886	none	NaN	NaN
119	1	86	12	bathroom	sun_aapitsgbtktqubfy.tif	16975.634479	16975.893309	16977.878966	14-May-2025 16:48:19	16681.553154	294.081325	none	NaN	NaN
119	1	87	23	bathroom	sun_aghyqhbptboemmoq.tif	16977.893325	16978.151678	16980.137395	14-May-2025 16:48:19	16681.553154	296.340171	none	NaN	NaN
119	1	88	20	bathroom	sun_afcoljnjfoxjtgja.tif	16980.151163	16980.409504	16982.395588	14-May-2025 16:48:19	16681.553154	298.598008	none	NaN	NaN
119	1	89	40	bathroom	sun_aofnryafpsjimzsb.tif	16982.409480	16982.667811	16984.653909	14-May-2025 16:48:19	16681.553154	300.856326	none	NaN	NaN
119	1	90	39	bathroom	sun_anryaplzeujmzfkd.tif	16984.659478	16984.917908	16986.903608	14-May-2025 16:48:19	16681.553154	303.106324	none	NaN	NaN
119	1	91	43	bathroom	sun_apjevzvycyhuqghb.tif	16986.909389	16987.167773	16989.153676	14-May-2025 16:48:19	16681.553154	305.356234	none	NaN	NaN
119	1	92	34	bathroom	sun_alkosphxlxwjwgjd.tif	16989.167745	16989.417798	16991.412000	14-May-2025 16:48:19	16681.553154	307.614591	none	NaN	NaN
119	1	93	41	bathroom	sun_aoybiabnpadelefl.tif	16991.417723	16991.676062	16993.661907	14-May-2025 16:48:19	16681.553154	309.864569	6	16994.774069	1.000000
119	1	94	46	bathroom	sun_apmqjbnwghzuhhzh.tif	17000.692643	17000.950969	17002.937037	14-May-2025 16:48:19	16681.553154	319.139489	none	NaN	NaN
119	1	95	57	bathroom	sun_axldvoqbuvuggfmq.tif	17002.942566	17003.200949	17005.186731	14-May-2025 16:48:19	16681.553154	321.389411	none	NaN	NaN
119	1	96	31	bathroom	sun_akiytfaagpdsphgz.tif	17005.192596	17005.450933	17007.436891	14-May-2025 16:48:19	16681.553154	323.639442	none	NaN	NaN
119	1	97	37	bathroom	sun_amzlamotzwfkwjco.tif	17007.442537	17007.700908	17009.686975	14-May-2025 16:48:19	16681.553154	325.889383	none	NaN	NaN
119	1	98	29	bathroom	sun_ahqjwnzgolcaoidx.tif	17009.700891	17009.959220	17011.945310	14-May-2025 16:48:19	16681.553154	328.147736	none	NaN	NaN
119	1	99	52	bathroom	sun_aunuadmjocsddsrl.tif	17011.951347	17012.209588	17014.195356	14-May-2025 16:48:19	16681.553154	330.398193	none	NaN	NaN
119	1	100	48	bathroom	sun_aqrpegblszgcoujh.tif	17014.201160	17014.459571	17016.445221	14-May-2025 16:48:19	16681.553154	332.648006	none	NaN	NaN
