subject	run	trial	texture	category	image	trialOnset	itiOnset	trialEnd	triggerDate	triggerTimeStamp	Onsets	responseKey	responseTime	accuracy
114	11	1	17	bathroom	sun_acegryoqftbzowsg.tif	31816.654052	31816.913436	31818.898383	17-Apr-2025 16:28:09	31812.621509	4.032543	none	NaN	NaN
114	11	2	12	bathroom	sun_aapitsgbtktqubfy.tif	31818.910543	31819.169037	31821.154303	17-Apr-2025 16:28:09	31812.621509	6.289034	none	NaN	NaN
114	11	3	27	bathroom	sun_ahcvzmoyaycdoftf.tif	31821.169782	31821.429951	31823.414305	17-Apr-2025 16:28:09	31812.621509	8.548274	none	NaN	NaN
114	11	4	39	bathroom	sun_anryaplzeujmzfkd.tif	31823.430424	31823.687635	31825.674322	17-Apr-2025 16:28:09	31812.621509	10.808916	none	NaN	NaN
114	11	5	51	bathroom	sun_atstyziqcmkahyxk.tif	31825.687100	31825.946713	31827.931306	17-Apr-2025 16:28:09	31812.621509	13.065591	none	NaN	NaN
114	11	6	53	bathroom	sun_ausgutylgojavyoq.tif	31827.947000	31828.203378	31830.191558	17-Apr-2025 16:28:09	31812.621509	15.325491	none	NaN	NaN
114	11	7	55	bathroom	sun_avhrdrntsqrjzccq.tif	31830.201922	31830.460254	31832.445986	17-Apr-2025 16:28:09	31812.621509	17.580413	none	NaN	NaN
114	11	8	36	bathroom	sun_ambriybtogmepttm.tif	31832.460019	31832.718576	31834.703818	17-Apr-2025 16:28:09	31812.621509	19.838510	none	NaN	NaN
114	11	9	22	bathroom	sun_agguqiubmwhqqunb.tif	31834.718214	31834.977114	31836.962480	17-Apr-2025 16:28:09	31812.621509	22.096705	none	NaN	NaN
114	11	10	35	bathroom	sun_alotolagknyrgtsk.tif	31836.976329	31837.235288	31839.220109	17-Apr-2025 16:28:09	31812.621509	24.354820	6	31841.071993	1.000000
114	11	11	28	bathroom	sun_ahijqszoswveeyji.tif	31846.251098	31846.510878	31848.495473	17-Apr-2025 16:28:09	31812.621509	33.629589	5	31849.863110	1.000000
114	11	12	30	bathroom	sun_ajlawzvmubibwbpy.tif	31855.527961	31855.785025	31857.771764	17-Apr-2025 16:28:09	31812.621509	42.906452	none	NaN	NaN
114	11	13	25	bathroom	sun_agyqfjcfkdcydepw.tif	31857.784354	31858.043442	31860.028403	17-Apr-2025 16:28:09	31812.621509	45.162845	none	NaN	NaN
114	11	14	11	bathroom	labelme_sfxiulhjbhlyiyt.tif	31860.043095	31860.305033	31862.287611	17-Apr-2025 16:28:09	31812.621509	47.421587	none	NaN	NaN
114	11	15	49	bathroom	sun_asfwthctfqerjvxr.tif	31862.303828	31862.562850	31864.547760	17-Apr-2025 16:28:09	31812.621509	49.682320	none	NaN	NaN
114	11	16	56	bathroom	sun_awnqiikzaispgmwo.tif	31864.564096	31864.820077	31866.808538	17-Apr-2025 16:28:09	31812.621509	51.942588	5	31868.677632	1.000000
114	11	17	29	bathroom	sun_ahqjwnzgolcaoidx.tif	31873.842975	31874.105036	31876.087494	17-Apr-2025 16:28:09	31812.621509	61.221467	none	NaN	NaN
114	11	18	34	bathroom	sun_alkosphxlxwjwgjd.tif	31876.103007	31876.362959	31878.347047	17-Apr-2025 16:28:09	31812.621509	63.481499	none	NaN	NaN
114	11	19	54	bathroom	sun_auzqhkafidnkrwmo.tif	31878.361832	31878.622343	31880.605643	17-Apr-2025 16:28:09	31812.621509	65.740323	none	NaN	NaN
114	11	20	48	bathroom	sun_aqrpegblszgcoujh.tif	31880.620829	31880.879256	31882.865346	17-Apr-2025 16:28:09	31812.621509	67.999320	none	NaN	NaN
114	11	21	33	bathroom	sun_aljolscmmzydegqp.tif	31882.879258	31883.145592	31885.123752	17-Apr-2025 16:28:09	31812.621509	70.257749	none	NaN	NaN
114	11	22	52	bathroom	sun_aunuadmjocsddsrl.tif	31885.138256	31885.395401	31887.382584	17-Apr-2025 16:28:09	31812.621509	72.516747	none	NaN	NaN
114	11	23	41	bathroom	sun_aoybiabnpadelefl.tif	31887.392531	31887.656652	31889.636642	17-Apr-2025 16:28:09	31812.621509	74.771022	none	NaN	NaN
114	11	24	15	bathroom	sun_abjtwfukuwddzted.tif	31889.651196	31889.911118	31891.895702	17-Apr-2025 16:28:09	31812.621509	77.029687	none	NaN	NaN
114	11	25	13	bathroom	sun_aavhrsfjbserjtht.tif	31891.909209	31892.167988	31894.153740	17-Apr-2025 16:28:09	31812.621509	79.287701	none	NaN	NaN
114	11	26	40	bathroom	sun_aofnryafpsjimzsb.tif	31894.167863	31894.426413	31896.412027	17-Apr-2025 16:28:09	31812.621509	81.546355	none	NaN	NaN
114	11	27	16	bathroom	sun_acduarbnmmoglmiv.tif	31896.426544	31896.684876	31898.670396	17-Apr-2025 16:28:09	31812.621509	83.805036	5	31901.418872	0.000000
114	11	28	18	bathroom	sun_acgyywnybuveqsro.tif	31905.701954	31905.959375	31907.946187	17-Apr-2025 16:28:09	31812.621509	93.080446	none	NaN	NaN
114	11	29	45	bathroom	sun_apkxzenqapsujocq.tif	31907.959432	31908.217938	31910.203265	17-Apr-2025 16:28:09	31812.621509	95.337923	6	31911.045595	1.000000
114	11	30	60	bathroom	sun_azqyogdvyhahyram.tif	31917.242946	31917.501245	31919.487275	17-Apr-2025 16:28:09	31812.621509	104.621437	none	NaN	NaN
114	11	31	38	bathroom	sun_anhioqovhscjqqwb.tif	31919.500690	31919.759340	31921.745248	17-Apr-2025 16:28:09	31812.621509	106.879181	none	NaN	NaN
114	11	32	44	bathroom	sun_apkruvsevgegsdwp.tif	31921.759166	31922.017731	31924.003304	17-Apr-2025 16:28:09	31812.621509	109.137658	none	NaN	NaN
114	11	33	26	bathroom	sun_ahaulkltgpkeeemi.tif	31924.017511	31924.276054	31926.262087	17-Apr-2025 16:28:09	31812.621509	111.396003	6	31927.582109	0.000000
114	11	34	37	bathroom	sun_amzlamotzwfkwjco.tif	31933.295475	31933.550831	31935.539559	17-Apr-2025 16:28:09	31812.621509	120.673966	none	NaN	NaN
114	11	35	43	bathroom	sun_apjevzvycyhuqghb.tif	31935.550968	31935.809056	31937.795462	17-Apr-2025 16:28:09	31812.621509	122.929459	none	NaN	NaN
114	11	36	14	bathroom	sun_abapwbhyhkfixyex.tif	31937.809047	31938.067571	31940.053277	17-Apr-2025 16:28:09	31812.621509	125.187538	none	NaN	NaN
114	11	37	21	bathroom	sun_aggnnqpdorgxpvce.tif	31940.067402	31940.325691	31942.311227	17-Apr-2025 16:28:09	31812.621509	127.445893	none	NaN	NaN
114	11	38	31	bathroom	sun_akiytfaagpdsphgz.tif	31942.325675	31942.584610	31944.570041	17-Apr-2025 16:28:09	31812.621509	129.704166	none	NaN	NaN
114	11	39	57	bathroom	sun_axldvoqbuvuggfmq.tif	31944.585612	31944.842405	31946.829408	17-Apr-2025 16:28:09	31812.621509	131.964104	none	NaN	NaN
114	11	40	59	bathroom	sun_axyrejkiiaqiurjk.tif	31946.842315	31947.100638	31949.086490	17-Apr-2025 16:28:09	31812.621509	134.220807	none	NaN	NaN
114	11	41	50	bathroom	sun_aspsyogrekjtfozg.tif	31949.100783	31949.359194	31951.344713	17-Apr-2025 16:28:09	31812.621509	136.479275	none	NaN	NaN
114	11	42	32	bathroom	sun_aleqenyvunhactkl.tif	31951.359109	31951.617065	31953.603084	17-Apr-2025 16:28:09	31812.621509	138.737600	none	NaN	NaN
114	11	43	42	bathroom	sun_apeeialkgkuxddgh.tif	31953.617747	31953.875508	31955.862055	17-Apr-2025 16:28:09	31812.621509	140.996238	5	31957.265910	1.000000
114	11	44	20	bathroom	sun_afcoljnjfoxjtgja.tif	31962.892293	31963.150406	31965.136440	17-Apr-2025 16:28:09	31812.621509	150.270785	none	NaN	NaN
114	11	45	24	bathroom	sun_agrwbmhcpmfuwmsg.tif	31965.150694	31965.409121	31967.394877	17-Apr-2025 16:28:09	31812.621509	152.529186	6	31969.132405	1.000000
114	11	46	23	bathroom	sun_aghyqhbptboemmoq.tif	31974.427651	31974.683562	31976.671969	17-Apr-2025 16:28:09	31812.621509	161.806142	6	31978.129878	1.000000
114	11	47	58	bathroom	sun_axxbkopsgyouuebh.tif	31983.710283	31983.967104	31985.954555	17-Apr-2025 16:28:09	31812.621509	171.088775	none	NaN	NaN
114	11	48	19	bathroom	sun_aclfzgynxzxlbepz.tif	31985.967487	31986.225330	31988.211688	17-Apr-2025 16:28:09	31812.621509	173.345978	none	NaN	NaN
114	11	49	46	bathroom	sun_apmqjbnwghzuhhzh.tif	31988.225313	31988.483873	31990.469561	17-Apr-2025 16:28:09	31812.621509	175.603805	none	NaN	NaN
114	11	50	47	bathroom	sun_apynckhmoftszqoq.tif	31990.484398	31990.742076	31992.728800	17-Apr-2025 16:28:09	31812.621509	177.862890	none	NaN	NaN
114	11	51	39	bathroom	sun_anryaplzeujmzfkd.tif	31992.741940	31993.000274	31994.986421	17-Apr-2025 16:28:09	31812.621509	180.120431	none	NaN	NaN
114	11	52	17	bathroom	sun_acegryoqftbzowsg.tif	31995.000388	31995.258711	31997.244365	17-Apr-2025 16:28:09	31812.621509	182.378879	none	NaN	NaN
114	11	53	16	bathroom	sun_acduarbnmmoglmiv.tif	31997.258584	31997.515718	31999.502488	17-Apr-2025 16:28:09	31812.621509	184.637075	5	32000.538292	0.000000
114	11	54	38	bathroom	sun_anhioqovhscjqqwb.tif	32006.543455	32006.800368	32008.787548	17-Apr-2025 16:28:09	31812.621509	193.921947	5	32010.132574	1.000000
114	11	55	13	bathroom	sun_aavhrsfjbserjtht.tif	32015.826111	32016.083471	32018.070514	17-Apr-2025 16:28:09	31812.621509	203.204602	none	NaN	NaN
114	11	56	46	bathroom	sun_apmqjbnwghzuhhzh.tif	32018.085394	32018.342977	32020.329678	17-Apr-2025 16:28:09	31812.621509	205.463885	none	NaN	NaN
114	11	57	53	bathroom	sun_ausgutylgojavyoq.tif	32020.342159	32020.600221	32022.586055	17-Apr-2025 16:28:09	31812.621509	207.720651	none	NaN	NaN
114	11	58	19	bathroom	sun_aclfzgynxzxlbepz.tif	32022.600219	32022.858551	32024.844749	17-Apr-2025 16:28:09	31812.621509	209.978711	none	NaN	NaN
114	11	59	57	bathroom	sun_axldvoqbuvuggfmq.tif	32024.858649	32025.116624	32027.102555	17-Apr-2025 16:28:09	31812.621509	212.237140	none	NaN	NaN
114	11	60	31	bathroom	sun_akiytfaagpdsphgz.tif	32027.116360	32027.375165	32029.360478	17-Apr-2025 16:28:09	31812.621509	214.494851	none	NaN	NaN
114	11	61	55	bathroom	sun_avhrdrntsqrjzccq.tif	32029.375156	32029.633605	32031.619505	17-Apr-2025 16:28:09	31812.621509	216.753648	none	NaN	NaN
114	11	62	34	bathroom	sun_alkosphxlxwjwgjd.tif	32031.633725	32031.891433	32033.877782	17-Apr-2025 16:28:09	31812.621509	219.012216	6	32034.998301	1.000000
114	11	63	24	bathroom	sun_agrwbmhcpmfuwmsg.tif	32040.917137	32041.175140	32043.161255	17-Apr-2025 16:28:09	31812.621509	228.295628	none	NaN	NaN
114	11	64	12	bathroom	sun_aapitsgbtktqubfy.tif	32043.174566	32043.433459	32045.419022	17-Apr-2025 16:28:09	31812.621509	230.553057	none	NaN	NaN
114	11	65	36	bathroom	sun_ambriybtogmepttm.tif	32045.433425	32045.691772	32047.677533	17-Apr-2025 16:28:09	31812.621509	232.811916	none	NaN	NaN
114	11	66	45	bathroom	sun_apkxzenqapsujocq.tif	32047.691434	32047.950082	32049.935830	17-Apr-2025 16:28:09	31812.621509	235.069925	none	NaN	NaN
114	11	67	23	bathroom	sun_aghyqhbptboemmoq.tif	32049.949951	32050.209078	32052.193717	17-Apr-2025 16:28:09	31812.621509	237.328442	none	NaN	NaN
114	11	68	44	bathroom	sun_apkruvsevgegsdwp.tif	32052.208260	32052.466830	32054.452722	17-Apr-2025 16:28:09	31812.621509	239.586751	none	NaN	NaN
114	11	69	14	bathroom	sun_abapwbhyhkfixyex.tif	32054.466592	32054.725161	32056.711140	17-Apr-2025 16:28:09	31812.621509	241.845084	none	NaN	NaN
114	11	70	56	bathroom	sun_awnqiikzaispgmwo.tif	32056.724783	32056.983341	32058.968859	17-Apr-2025 16:28:09	31812.621509	244.103275	none	NaN	NaN
114	11	71	41	bathroom	sun_aoybiabnpadelefl.tif	32058.982780	32059.241350	32061.226705	17-Apr-2025 16:28:09	31812.621509	246.361271	none	NaN	NaN
114	11	72	37	bathroom	sun_amzlamotzwfkwjco.tif	32061.241391	32061.500095	32063.485264	17-Apr-2025 16:28:09	31812.621509	248.619882	5	32065.188091	1.000000
114	11	73	58	bathroom	sun_axxbkopsgyouuebh.tif	32070.525224	32070.783341	32072.768991	17-Apr-2025 16:28:09	31812.621509	257.903715	none	NaN	NaN
114	11	74	60	bathroom	sun_azqyogdvyhahyram.tif	32072.782849	32073.041217	32075.026966	17-Apr-2025 16:28:09	31812.621509	260.161341	none	NaN	NaN
114	11	75	35	bathroom	sun_alotolagknyrgtsk.tif	32075.041559	32075.300073	32077.286033	17-Apr-2025 16:28:09	31812.621509	262.420050	none	NaN	NaN
114	11	76	11	bathroom	labelme_sfxiulhjbhlyiyt.tif	32077.299548	32077.558448	32079.543879	17-Apr-2025 16:28:09	31812.621509	264.678039	none	NaN	NaN
114	11	77	42	bathroom	sun_apeeialkgkuxddgh.tif	32079.558083	32079.816870	32081.802314	17-Apr-2025 16:28:09	31812.621509	266.936574	none	NaN	NaN
114	11	78	29	bathroom	sun_ahqjwnzgolcaoidx.tif	32081.816051	32082.074483	32084.060290	17-Apr-2025 16:28:09	31812.621509	269.194543	6	32086.036098	1.000000
114	11	79	51	bathroom	sun_atstyziqcmkahyxk.tif	32091.100915	32091.358131	32093.345438	17-Apr-2025 16:28:09	31812.621509	278.479407	none	NaN	NaN
114	11	80	27	bathroom	sun_ahcvzmoyaycdoftf.tif	32093.357500	32093.616074	32095.601758	17-Apr-2025 16:28:09	31812.621509	280.735991	none	NaN	NaN
114	11	81	59	bathroom	sun_axyrejkiiaqiurjk.tif	32095.616555	32095.874982	32097.860867	17-Apr-2025 16:28:09	31812.621509	282.995046	none	NaN	NaN
114	11	82	52	bathroom	sun_aunuadmjocsddsrl.tif	32097.874704	32098.133290	32100.118763	17-Apr-2025 16:28:09	31812.621509	285.253196	none	NaN	NaN
114	11	83	20	bathroom	sun_afcoljnjfoxjtgja.tif	32100.132778	32100.391269	32102.376668	17-Apr-2025 16:28:09	31812.621509	287.511270	none	NaN	NaN
114	11	84	15	bathroom	sun_abjtwfukuwddzted.tif	32102.391221	32102.649572	32104.635048	17-Apr-2025 16:28:09	31812.621509	289.769712	none	NaN	NaN
114	11	85	49	bathroom	sun_asfwthctfqerjvxr.tif	32104.649528	32104.907858	32106.893299	17-Apr-2025 16:28:09	31812.621509	292.028019	none	NaN	NaN
114	11	86	21	bathroom	sun_aggnnqpdorgxpvce.tif	32106.907729	32107.166281	32109.151668	17-Apr-2025 16:28:09	31812.621509	294.286220	none	NaN	NaN
114	11	87	32	bathroom	sun_aleqenyvunhactkl.tif	32109.166164	32109.424446	32111.409998	17-Apr-2025 16:28:09	31812.621509	296.544656	none	NaN	NaN
114	11	88	43	bathroom	sun_apjevzvycyhuqghb.tif	32111.424344	32111.682914	32113.668290	17-Apr-2025 16:28:09	31812.621509	298.802836	none	NaN	NaN
114	11	89	40	bathroom	sun_aofnryafpsjimzsb.tif	32113.682786	32113.940888	32115.927386	17-Apr-2025 16:28:09	31812.621509	301.061278	none	NaN	NaN
114	11	90	26	bathroom	sun_ahaulkltgpkeeemi.tif	32115.940980	32116.199324	32118.185214	17-Apr-2025 16:28:09	31812.621509	303.319472	none	NaN	NaN
114	11	91	54	bathroom	sun_auzqhkafidnkrwmo.tif	32118.199430	32118.457868	32120.443546	17-Apr-2025 16:28:09	31812.621509	305.577921	none	NaN	NaN
114	11	92	18	bathroom	sun_acgyywnybuveqsro.tif	32120.457591	32120.715953	32122.701763	17-Apr-2025 16:28:09	31812.621509	307.836082	none	NaN	NaN
114	11	93	47	bathroom	sun_apynckhmoftszqoq.tif	32122.716066	32122.974268	32124.959839	17-Apr-2025 16:28:09	31812.621509	310.094558	none	NaN	NaN
114	11	94	25	bathroom	sun_agyqfjcfkdcydepw.tif	32124.974383	32125.232587	32127.218223	17-Apr-2025 16:28:09	31812.621509	312.352875	none	NaN	NaN
114	11	95	28	bathroom	sun_ahijqszoswveeyji.tif	32127.232675	32127.491129	32129.477196	17-Apr-2025 16:28:09	31812.621509	314.611166	none	NaN	NaN
114	11	96	48	bathroom	sun_aqrpegblszgcoujh.tif	32129.490871	32129.749671	32131.735313	17-Apr-2025 16:28:09	31812.621509	316.869362	none	NaN	NaN
114	11	97	50	bathroom	sun_aspsyogrekjtfozg.tif	32131.749460	32132.007316	32133.993883	17-Apr-2025 16:28:09	31812.621509	319.127952	5	32134.767343	1.000000
114	11	98	22	bathroom	sun_agguqiubmwhqqunb.tif	32141.024612	32141.282708	32143.268500	17-Apr-2025 16:28:09	31812.621509	328.403104	none	NaN	NaN
114	11	99	33	bathroom	sun_aljolscmmzydegqp.tif	32143.282857	32143.540992	32145.526757	17-Apr-2025 16:28:09	31812.621509	330.661348	none	NaN	NaN
114	11	100	30	bathroom	sun_ajlawzvmubibwbpy.tif	32145.541153	32145.799353	32147.785346	17-Apr-2025 16:28:09	31812.621509	332.919644	none	NaN	NaN
