subject	run	trial	texture	category	image	trialOnset	itiOnset	trialEnd	triggerDate	triggerTimeStamp	Onsets	responseKey	responseTime	accuracy
114	10	1	23	kitchen	sun_abrcnpqqhmjwekyf.tif	31401.380026	31401.638464	31403.624563	17-Apr-2025 16:21:14	31397.355713	4.024313	none	NaN	NaN
114	10	2	12	kitchen	labelme_kxvouciolcpqplr.tif	31403.638435	31403.896658	31405.882650	17-Apr-2025 16:21:14	31397.355713	6.282722	none	NaN	NaN
114	10	3	49	kitchen	sun_akcjzhbbjlbogpdi.tif	31405.896648	31406.154975	31408.140996	17-Apr-2025 16:21:14	31397.355713	8.540935	none	NaN	NaN
114	10	4	20	kitchen	sun_abdxkyyxwfskuaqb.tif	31408.155832	31408.413330	31410.400097	17-Apr-2025 16:21:14	31397.355713	10.800119	5	31411.464618	1.000000
114	10	5	45	kitchen	sun_aixorpehvfykdynp.tif	31417.456781	31417.713447	31419.700951	17-Apr-2025 16:21:14	31397.355713	20.101068	none	NaN	NaN
114	10	6	47	kitchen	sun_ajkqhtgcbgpcwrwn.tif	31419.713622	31419.973089	31421.957956	17-Apr-2025 16:21:14	31397.355713	22.357909	none	NaN	NaN
114	10	7	32	kitchen	sun_aenotlpyftoioydp.tif	31421.971786	31422.229895	31424.216002	17-Apr-2025 16:21:14	31397.355713	24.616073	6	31425.238902	1.000000
114	10	8	60	kitchen	sun_azmutvzbxypaceni.tif	31431.255193	31431.513153	31433.499043	17-Apr-2025 16:21:14	31397.355713	33.899480	none	NaN	NaN
114	10	9	19	kitchen	sun_abdenxonkemggwsq.tif	31433.513510	31433.773395	31435.757904	17-Apr-2025 16:21:14	31397.355713	36.157797	none	NaN	NaN
114	10	10	17	kitchen	sun_aarfiyshqohlwkmo.tif	31435.771513	31436.030129	31438.015592	17-Apr-2025 16:21:14	31397.355713	38.415800	5	31438.976225	1.000000
114	10	11	53	kitchen	sun_aunzlwrbjumxhwdj.tif	31445.054683	31445.313242	31447.298909	17-Apr-2025 16:21:14	31397.355713	47.698970	none	NaN	NaN
114	10	12	16	kitchen	sun_aapllqyqlykszopd.tif	31447.312982	31447.571450	31449.557519	17-Apr-2025 16:21:14	31397.355713	49.957269	none	NaN	NaN
114	10	13	28	kitchen	sun_adgqasybjyktddhj.tif	31449.571448	31449.829537	31451.815612	17-Apr-2025 16:21:14	31397.355713	52.215735	none	NaN	NaN
114	10	14	57	kitchen	sun_axyyrmzcupyhlivc.tif	31451.829606	31452.088059	31454.073895	17-Apr-2025 16:21:14	31397.355713	54.473893	none	NaN	NaN
114	10	15	46	kitchen	sun_ajcbwwvdlsvjyzje.tif	31454.088052	31454.346388	31456.331832	17-Apr-2025 16:21:14	31397.355713	56.732339	none	NaN	NaN
114	10	16	44	kitchen	sun_ahywdevtimnqcsln.tif	31456.346252	31456.604943	31458.590016	17-Apr-2025 16:21:14	31397.355713	58.990539	none	NaN	NaN
114	10	17	59	kitchen	sun_aypmqwcualkenuoe.tif	31458.604463	31458.863022	31460.848984	17-Apr-2025 16:21:14	31397.355713	61.248750	none	NaN	NaN
114	10	18	55	kitchen	sun_avszsnwsbuqfgzbn.tif	31460.862875	31461.121344	31463.106751	17-Apr-2025 16:21:14	31397.355713	63.507162	5	31464.344896	0.000000
114	10	19	33	kitchen	sun_aeqdocilnnpuvuhx.tif	31470.146820	31470.404289	31472.391430	17-Apr-2025 16:21:14	31397.355713	72.791107	none	NaN	NaN
114	10	20	36	kitchen	sun_aggjlwcdjsjcaemh.tif	31472.404757	31472.663653	31474.648752	17-Apr-2025 16:21:14	31397.355713	75.049044	none	NaN	NaN
114	10	21	35	kitchen	sun_afuyedyxivkhecmu.tif	31474.662930	31474.921136	31476.906902	17-Apr-2025 16:21:14	31397.355713	77.307217	none	NaN	NaN
114	10	22	15	kitchen	sun_aamedkxepzlwuxes.tif	31476.920779	31477.179134	31479.165410	17-Apr-2025 16:21:14	31397.355713	79.565066	none	NaN	NaN
114	10	23	24	kitchen	sun_acfmftudsenhrfhy.tif	31479.179581	31479.438111	31481.423488	17-Apr-2025 16:21:14	31397.355713	81.823868	none	NaN	NaN
114	10	24	38	kitchen	sun_agubuxuukhzyzpdp.tif	31481.437839	31481.696203	31483.682296	17-Apr-2025 16:21:14	31397.355713	84.082126	none	NaN	NaN
114	10	25	42	kitchen	sun_ahpczsiumwwocjkv.tif	31483.695709	31483.954887	31485.939598	17-Apr-2025 16:21:14	31397.355713	86.339996	none	NaN	NaN
114	10	26	31	kitchen	sun_aehawpgmrlhlvcow.tif	31485.954671	31486.212501	31488.198480	17-Apr-2025 16:21:14	31397.355713	88.598958	none	NaN	NaN
114	10	27	51	kitchen	sun_aqeaevwwwjoqhzvl.tif	31488.212704	31488.471398	31490.456924	17-Apr-2025 16:21:14	31397.355713	90.856991	none	NaN	NaN
114	10	28	40	kitchen	sun_ahdycvpopffkzzsu.tif	31490.470691	31490.729759	31492.715014	17-Apr-2025 16:21:14	31397.355713	93.114978	none	NaN	NaN
114	10	29	26	kitchen	sun_acwjdupvyjsugpay.tif	31492.729472	31492.988040	31494.973608	17-Apr-2025 16:21:14	31397.355713	95.373759	none	NaN	NaN
114	10	30	37	kitchen	sun_agorklincwxrdtga.tif	31494.987856	31495.245871	31497.232148	17-Apr-2025 16:21:14	31397.355713	97.632143	none	NaN	NaN
114	10	31	50	kitchen	sun_amjjdeyrggfqgmom.tif	31497.245625	31497.504186	31499.489588	17-Apr-2025 16:21:14	31397.355713	99.889912	none	NaN	NaN
114	10	32	13	kitchen	labelme_rykdqxenmhulbdn.tif	31499.496283	31499.755281	31501.740849	17-Apr-2025 16:21:14	31397.355713	102.140570	5	31505.859413	0.000000
114	10	33	39	kitchen	sun_agzzivivdpnawacl.tif	31508.779067	31509.037636	31511.022914	17-Apr-2025 16:21:14	31397.355713	111.423354	none	NaN	NaN
114	10	34	34	kitchen	sun_aexklacwqwezaorf.tif	31511.037621	31511.295827	31513.282112	17-Apr-2025 16:21:14	31397.355713	113.681908	none	NaN	NaN
114	10	35	21	kitchen	sun_abftihopvusyfakt.tif	31513.295814	31513.554070	31515.539635	17-Apr-2025 16:21:14	31397.355713	115.940101	none	NaN	NaN
114	10	36	30	kitchen	sun_aegoxogugdkwpmpj.tif	31515.554273	31515.812682	31517.798864	17-Apr-2025 16:21:14	31397.355713	118.198560	none	NaN	NaN
114	10	37	27	kitchen	sun_acxkpeoqbwcxfvip.tif	31517.812436	31518.070902	31520.056589	17-Apr-2025 16:21:14	31397.355713	120.456723	none	NaN	NaN
114	10	38	14	kitchen	sun_aadbddgrdsjugojn.tif	31520.070763	31520.329079	31522.314726	17-Apr-2025 16:21:14	31397.355713	122.715050	none	NaN	NaN
114	10	39	56	kitchen	sun_awcpdzzznmweyyhv.tif	31522.329063	31522.587523	31524.573479	17-Apr-2025 16:21:14	31397.355713	124.973350	none	NaN	NaN
114	10	40	18	kitchen	sun_aaxxjlsuzvqlgylf.tif	31524.587353	31524.845712	31526.831450	17-Apr-2025 16:21:14	31397.355713	127.231640	none	NaN	NaN
114	10	41	11	kitchen	labelme_brsyyvweiuaazfr.tif	31526.845731	31527.105070	31529.089590	17-Apr-2025 16:21:14	31397.355713	129.490018	5	31529.754580	0.000000
114	10	42	41	kitchen	sun_ahljzhgcdpomplvg.tif	31536.129843	31536.387556	31538.374064	17-Apr-2025 16:21:14	31397.355713	138.774130	none	NaN	NaN
114	10	43	25	kitchen	sun_acgtpgfybqjmzeyw.tif	31538.387555	31538.645652	31540.631495	17-Apr-2025 16:21:14	31397.355713	141.031842	none	NaN	NaN
114	10	44	52	kitchen	sun_auaiucuqpdausiva.tif	31547.670944	31547.929209	31549.914941	17-Apr-2025 16:21:14	31397.355713	150.315231	none	NaN	NaN
114	10	45	48	kitchen	sun_akchetnepxlcxhsu.tif	31549.928946	31550.187577	31552.173397	17-Apr-2025 16:21:14	31397.355713	152.573233	none	NaN	NaN
114	10	46	54	kitchen	sun_auticobqsbwgoppi.tif	31552.187565	31552.445546	31554.431582	17-Apr-2025 16:21:14	31397.355713	154.831852	none	NaN	NaN
114	10	47	58	kitchen	sun_aymvwlarqodbwuoc.tif	31554.445178	31554.703871	31556.689192	17-Apr-2025 16:21:14	31397.355713	157.089465	none	NaN	NaN
114	10	48	43	kitchen	sun_ahspylgoovwmwvgk.tif	31556.704078	31556.962521	31558.948432	17-Apr-2025 16:21:14	31397.355713	159.348365	5	31559.353679	1.000000
114	10	49	29	kitchen	sun_admlmbcdswaszruo.tif	31565.980097	31566.237160	31568.223941	17-Apr-2025 16:21:14	31397.355713	168.624384	none	NaN	NaN
114	10	50	22	kitchen	sun_abpwyqmlzafvklqo.tif	31568.237050	31568.495372	31570.481559	17-Apr-2025 16:21:14	31397.355713	170.881337	none	NaN	NaN
114	10	51	46	kitchen	sun_ajcbwwvdlsvjyzje.tif	31570.495365	31570.753944	31572.739330	17-Apr-2025 16:21:14	31397.355713	173.139652	none	NaN	NaN
114	10	52	25	kitchen	sun_acgtpgfybqjmzeyw.tif	31572.753791	31573.012097	31574.997857	17-Apr-2025 16:21:14	31397.355713	175.398078	none	NaN	NaN
114	10	53	31	kitchen	sun_aehawpgmrlhlvcow.tif	31575.011973	31575.270320	31577.256352	17-Apr-2025 16:21:14	31397.355713	177.656260	none	NaN	NaN
114	10	54	36	kitchen	sun_aggjlwcdjsjcaemh.tif	31577.270443	31577.528755	31579.514295	17-Apr-2025 16:21:14	31397.355713	179.914730	6	31580.042123	1.000000
114	10	55	53	kitchen	sun_aunzlwrbjumxhwdj.tif	31586.553483	31586.812018	31588.797878	17-Apr-2025 16:21:14	31397.355713	189.197770	none	NaN	NaN
114	10	56	27	kitchen	sun_acxkpeoqbwcxfvip.tif	31588.811883	31589.070337	31591.056025	17-Apr-2025 16:21:14	31397.355713	191.456170	none	NaN	NaN
114	10	57	12	kitchen	labelme_kxvouciolcpqplr.tif	31591.070242	31591.328561	31593.314607	17-Apr-2025 16:21:14	31397.355713	193.714529	none	NaN	NaN
114	10	58	14	kitchen	sun_aadbddgrdsjugojn.tif	31593.328549	31593.587596	31595.572972	17-Apr-2025 16:21:14	31397.355713	195.972836	none	NaN	NaN
114	10	59	48	kitchen	sun_akchetnepxlcxhsu.tif	31595.587248	31595.845094	31597.831345	17-Apr-2025 16:21:14	31397.355713	198.231535	none	NaN	NaN
114	10	60	20	kitchen	sun_abdxkyyxwfskuaqb.tif	31597.845195	31598.103291	31600.089674	17-Apr-2025 16:21:14	31397.355713	200.489482	5	31601.032580	0.000000
114	10	61	44	kitchen	sun_ahywdevtimnqcsln.tif	31607.120075	31607.378576	31609.364645	17-Apr-2025 16:21:14	31397.355713	209.764362	none	NaN	NaN
114	10	62	52	kitchen	sun_auaiucuqpdausiva.tif	31609.378415	31609.637357	31611.622341	17-Apr-2025 16:21:14	31397.355713	212.022702	none	NaN	NaN
114	10	63	45	kitchen	sun_aixorpehvfykdynp.tif	31611.636781	31611.895222	31613.881320	17-Apr-2025 16:21:14	31397.355713	214.281068	none	NaN	NaN
114	10	64	47	kitchen	sun_ajkqhtgcbgpcwrwn.tif	31613.895065	31614.153527	31616.139998	17-Apr-2025 16:21:14	31397.355713	216.539352	5	31616.995159	1.000000
114	10	65	28	kitchen	sun_adgqasybjyktddhj.tif	31623.178375	31623.436289	31625.422618	17-Apr-2025 16:21:14	31397.355713	225.822662	none	NaN	NaN
114	10	66	33	kitchen	sun_aeqdocilnnpuvuhx.tif	31625.436587	31625.695063	31627.680431	17-Apr-2025 16:21:14	31397.355713	228.080874	6	31629.710665	1.000000
114	10	67	59	kitchen	sun_aypmqwcualkenuoe.tif	31634.719969	31634.978117	31636.963993	17-Apr-2025 16:21:14	31397.355713	237.364256	none	NaN	NaN
114	10	68	29	kitchen	sun_admlmbcdswaszruo.tif	31636.977982	31637.236760	31639.222233	17-Apr-2025 16:21:14	31397.355713	239.622269	none	NaN	NaN
114	10	69	55	kitchen	sun_avszsnwsbuqfgzbn.tif	31639.236619	31639.494798	31641.481419	17-Apr-2025 16:21:14	31397.355713	241.880906	none	NaN	NaN
114	10	70	35	kitchen	sun_afuyedyxivkhecmu.tif	31641.494803	31641.753258	31643.739181	17-Apr-2025 16:21:14	31397.355713	244.139090	5	31646.794060	1.000000
114	10	71	26	kitchen	sun_acwjdupvyjsugpay.tif	31650.778557	31651.036338	31653.022707	17-Apr-2025 16:21:14	31397.355713	253.422844	none	NaN	NaN
114	10	72	15	kitchen	sun_aamedkxepzlwuxes.tif	31653.036441	31653.295116	31655.280971	17-Apr-2025 16:21:14	31397.355713	255.680728	none	NaN	NaN
114	10	73	11	kitchen	labelme_brsyyvweiuaazfr.tif	31655.294772	31655.553198	31657.539094	17-Apr-2025 16:21:14	31397.355713	257.939059	none	NaN	NaN
114	10	74	40	kitchen	sun_ahdycvpopffkzzsu.tif	31657.553181	31657.811975	31659.797502	17-Apr-2025 16:21:14	31397.355713	260.197468	none	NaN	NaN
114	10	75	32	kitchen	sun_aenotlpyftoioydp.tif	31659.811031	31660.069709	31662.055136	17-Apr-2025 16:21:14	31397.355713	262.455318	none	NaN	NaN
114	10	76	58	kitchen	sun_aymvwlarqodbwuoc.tif	31662.069690	31662.328373	31664.314030	17-Apr-2025 16:21:14	31397.355713	264.713977	none	NaN	NaN
114	10	77	18	kitchen	sun_aaxxjlsuzvqlgylf.tif	31664.328018	31664.586468	31666.572386	17-Apr-2025 16:21:14	31397.355713	266.972305	none	NaN	NaN
114	10	78	51	kitchen	sun_aqeaevwwwjoqhzvl.tif	31666.586731	31666.844683	31668.831274	17-Apr-2025 16:21:14	31397.355713	269.231018	none	NaN	NaN
114	10	79	56	kitchen	sun_awcpdzzznmweyyhv.tif	31668.844884	31669.103228	31671.088662	17-Apr-2025 16:21:14	31397.355713	271.489171	none	NaN	NaN
114	10	80	42	kitchen	sun_ahpczsiumwwocjkv.tif	31671.102952	31671.361890	31673.346810	17-Apr-2025 16:21:14	31397.355713	273.747239	5	31674.468678	1.000000
114	10	81	60	kitchen	sun_azmutvzbxypaceni.tif	31680.386281	31680.644620	31682.630501	17-Apr-2025 16:21:14	31397.355713	283.030568	none	NaN	NaN
114	10	82	23	kitchen	sun_abrcnpqqhmjwekyf.tif	31682.644502	31682.903133	31684.889100	17-Apr-2025 16:21:14	31397.355713	285.288789	5	31685.910651	1.000000
114	10	83	49	kitchen	sun_akcjzhbbjlbogpdi.tif	31691.927983	31692.186180	31694.172561	17-Apr-2025 16:21:14	31397.355713	294.572270	none	NaN	NaN
114	10	84	50	kitchen	sun_amjjdeyrggfqgmom.tif	31694.186186	31694.444514	31696.430824	17-Apr-2025 16:21:14	31397.355713	296.830473	none	NaN	NaN
114	10	85	24	kitchen	sun_acfmftudsenhrfhy.tif	31696.444378	31696.702947	31698.688726	17-Apr-2025 16:21:14	31397.355713	299.088665	none	NaN	NaN
114	10	86	21	kitchen	sun_abftihopvusyfakt.tif	31698.702798	31698.961021	31700.947361	17-Apr-2025 16:21:14	31397.355713	301.347085	none	NaN	NaN
114	10	87	43	kitchen	sun_ahspylgoovwmwvgk.tif	31700.961006	31701.219374	31703.205370	17-Apr-2025 16:21:14	31397.355713	303.605293	none	NaN	NaN
114	10	88	41	kitchen	sun_ahljzhgcdpomplvg.tif	31703.219025	31703.477664	31705.463543	17-Apr-2025 16:21:14	31397.355713	305.863312	none	NaN	NaN
114	10	89	34	kitchen	sun_aexklacwqwezaorf.tif	31705.477430	31705.735975	31707.721438	17-Apr-2025 16:21:14	31397.355713	308.121717	none	NaN	NaN
114	10	90	38	kitchen	sun_agubuxuukhzyzpdp.tif	31707.735771	31707.994219	31709.980255	17-Apr-2025 16:21:14	31397.355713	310.380058	none	NaN	NaN
114	10	91	30	kitchen	sun_aegoxogugdkwpmpj.tif	31709.994189	31710.252923	31712.238443	17-Apr-2025 16:21:14	31397.355713	312.638476	none	NaN	NaN
114	10	92	13	kitchen	labelme_rykdqxenmhulbdn.tif	31712.252394	31712.511024	31714.496662	17-Apr-2025 16:21:14	31397.355713	314.896681	none	NaN	NaN
114	10	93	19	kitchen	sun_abdenxonkemggwsq.tif	31714.510931	31714.769506	31716.754795	17-Apr-2025 16:21:14	31397.355713	317.155218	none	NaN	NaN
114	10	94	39	kitchen	sun_agzzivivdpnawacl.tif	31716.769482	31717.028069	31719.013857	17-Apr-2025 16:21:14	31397.355713	319.413769	none	NaN	NaN
114	10	95	37	kitchen	sun_agorklincwxrdtga.tif	31719.027140	31719.285810	31721.271496	17-Apr-2025 16:21:14	31397.355713	321.671427	none	NaN	NaN
114	10	96	22	kitchen	sun_abpwyqmlzafvklqo.tif	31721.285903	31721.544448	31723.530111	17-Apr-2025 16:21:14	31397.355713	323.930190	none	NaN	NaN
114	10	97	16	kitchen	sun_aapllqyqlykszopd.tif	31723.544192	31723.802873	31725.788230	17-Apr-2025 16:21:14	31397.355713	326.188479	none	NaN	NaN
114	10	98	57	kitchen	sun_axyyrmzcupyhlivc.tif	31725.802703	31726.060717	31728.046753	17-Apr-2025 16:21:14	31397.355713	328.446990	none	NaN	NaN
114	10	99	54	kitchen	sun_auticobqsbwgoppi.tif	31728.061053	31728.319366	31730.305553	17-Apr-2025 16:21:14	31397.355713	330.705340	none	NaN	NaN
114	10	100	17	kitchen	sun_aarfiyshqohlwkmo.tif	31730.318912	31730.577386	31732.562694	17-Apr-2025 16:21:14	31397.355713	332.963199	none	NaN	NaN
