subject	run	trial	texture	category	image	trialOnset	itiOnset	trialEnd	triggerDate	triggerTimeStamp	Onsets	responseKey	responseTime	accuracy
101	7	1	30	bathroom	sun_ajlawzvmubibwbpy.tif	33225.462143	33225.720385	33227.706194	13-Mar-2025 17:02:47	33221.432269	4.029874	none	NaN	NaN
101	7	2	24	bathroom	sun_agrwbmhcpmfuwmsg.tif	33227.711664	33227.970477	33229.955726	13-Mar-2025 17:02:47	33221.432269	6.279395	none	NaN	NaN
101	7	3	18	bathroom	sun_acgyywnybuveqsro.tif	33229.962112	33230.220348	33232.206292	13-Mar-2025 17:02:47	33221.432269	8.529843	none	NaN	NaN
101	7	4	11	bathroom	labelme_sfxiulhjbhlyiyt.tif	33232.211555	33232.470329	33234.455572	13-Mar-2025 17:02:47	33221.432269	10.779286	5	33235.486501	1.000000
101	7	5	36	bathroom	sun_ambriybtogmepttm.tif	33241.486450	33241.744648	33243.730489	13-Mar-2025 17:02:47	33221.432269	20.054181	none	NaN	NaN
101	7	6	59	bathroom	sun_axyrejkiiaqiurjk.tif	33243.736509	33243.994732	33245.980481	13-Mar-2025 17:02:47	33221.432269	22.304240	none	NaN	NaN
101	7	7	41	bathroom	sun_aoybiabnpadelefl.tif	33245.986451	33246.244725	33248.230543	13-Mar-2025 17:02:47	33221.432269	24.554182	none	NaN	NaN
101	7	8	27	bathroom	sun_ahcvzmoyaycdoftf.tif	33248.236358	33248.494707	33250.480903	13-Mar-2025 17:02:47	33221.432269	26.804089	none	NaN	NaN
101	7	9	33	bathroom	sun_aljolscmmzydegqp.tif	33250.494692	33250.753116	33252.738996	13-Mar-2025 17:02:47	33221.432269	29.062423	none	NaN	NaN
101	7	10	19	bathroom	sun_aclfzgynxzxlbepz.tif	33252.744686	33253.003228	33254.988906	13-Mar-2025 17:02:47	33221.432269	31.312417	none	NaN	NaN
101	7	11	50	bathroom	sun_aspsyogrekjtfozg.tif	33255.002995	33255.261403	33257.247825	13-Mar-2025 17:02:47	33221.432269	33.570726	none	NaN	NaN
101	7	12	25	bathroom	sun_agyqfjcfkdcydepw.tif	33257.261213	33257.519651	33259.505110	13-Mar-2025 17:02:47	33221.432269	35.828943	none	NaN	NaN
101	7	13	48	bathroom	sun_aqrpegblszgcoujh.tif	33259.511261	33259.769623	33261.755388	13-Mar-2025 17:02:47	33221.432269	38.078991	6	33262.518432	0.000000
101	7	14	52	bathroom	sun_aunuadmjocsddsrl.tif	33268.777897	33269.036220	33271.022286	13-Mar-2025 17:02:47	33221.432269	47.345628	none	NaN	NaN
101	7	15	45	bathroom	sun_apkxzenqapsujocq.tif	33271.027989	33271.286739	33273.272414	13-Mar-2025 17:02:47	33221.432269	49.595720	none	NaN	NaN
101	7	16	54	bathroom	sun_auzqhkafidnkrwmo.tif	33273.278291	33273.536740	33275.522162	13-Mar-2025 17:02:47	33221.432269	51.846022	5	33276.768579	1.000000
101	7	17	43	bathroom	sun_apjevzvycyhuqghb.tif	33282.553380	33282.811237	33284.797607	13-Mar-2025 17:02:47	33221.432269	61.121111	none	NaN	NaN
101	7	18	23	bathroom	sun_aghyqhbptboemmoq.tif	33284.803209	33285.061649	33287.047249	13-Mar-2025 17:02:47	33221.432269	63.370940	5	33287.545410	0.000000
101	7	19	57	bathroom	sun_axldvoqbuvuggfmq.tif	33294.069841	33294.327818	33296.314406	13-Mar-2025 17:02:47	33221.432269	72.637572	none	NaN	NaN
101	7	20	13	bathroom	sun_aavhrsfjbserjtht.tif	33296.327806	33296.586541	33298.572075	13-Mar-2025 17:02:47	33221.432269	74.895537	6	33299.722551	0.000000
101	7	21	28	bathroom	sun_ahijqszoswveeyji.tif	33305.602709	33305.860953	33307.847293	13-Mar-2025 17:02:47	33221.432269	84.170440	none	NaN	NaN
101	7	22	51	bathroom	sun_atstyziqcmkahyxk.tif	33307.860928	33308.119224	33310.104954	13-Mar-2025 17:02:47	33221.432269	86.428659	none	NaN	NaN
101	7	23	55	bathroom	sun_avhrdrntsqrjzccq.tif	33310.119181	33310.377580	33312.363172	13-Mar-2025 17:02:47	33221.432269	88.686912	none	NaN	NaN
101	7	24	40	bathroom	sun_aofnryafpsjimzsb.tif	33312.369184	33312.627572	33314.613002	13-Mar-2025 17:02:47	33221.432269	90.936915	none	NaN	NaN
101	7	25	44	bathroom	sun_apkruvsevgegsdwp.tif	33314.619226	33314.877474	33316.863455	13-Mar-2025 17:02:47	33221.432269	93.186957	none	NaN	NaN
101	7	26	42	bathroom	sun_apeeialkgkuxddgh.tif	33316.877546	33317.135893	33319.121921	13-Mar-2025 17:02:47	33221.432269	95.445276	none	NaN	NaN
101	7	27	20	bathroom	sun_afcoljnjfoxjtgja.tif	33319.127652	33319.385802	33321.371890	13-Mar-2025 17:02:47	33221.432269	97.695382	none	NaN	NaN
101	7	28	17	bathroom	sun_acegryoqftbzowsg.tif	33321.385810	33321.644266	33323.629571	13-Mar-2025 17:02:47	33221.432269	99.953541	6	33324.624179	1.000000
101	7	29	37	bathroom	sun_amzlamotzwfkwjco.tif	33330.653027	33330.911331	33332.897833	13-Mar-2025 17:02:47	33221.432269	109.220758	none	NaN	NaN
101	7	30	16	bathroom	sun_acduarbnmmoglmiv.tif	33332.911326	33333.169548	33335.155830	13-Mar-2025 17:02:47	33221.432269	111.479057	none	NaN	NaN
101	7	31	34	bathroom	sun_alkosphxlxwjwgjd.tif	33335.161177	33335.419523	33337.405054	13-Mar-2025 17:02:47	33221.432269	113.728908	none	NaN	NaN
101	7	32	49	bathroom	sun_asfwthctfqerjvxr.tif	33337.410719	33337.669546	33339.655106	13-Mar-2025 17:02:47	33221.432269	115.978450	none	NaN	NaN
101	7	33	31	bathroom	sun_akiytfaagpdsphgz.tif	33339.669543	33339.927960	33341.913483	13-Mar-2025 17:02:47	33221.432269	118.237273	none	NaN	NaN
101	7	34	53	bathroom	sun_ausgutylgojavyoq.tif	33341.919115	33342.177869	33344.163106	13-Mar-2025 17:02:47	33221.432269	120.486846	none	NaN	NaN
101	7	35	39	bathroom	sun_anryaplzeujmzfkd.tif	33344.169530	33344.427427	33346.413593	13-Mar-2025 17:02:47	33221.432269	122.737260	none	NaN	NaN
101	7	36	21	bathroom	sun_aggnnqpdorgxpvce.tif	33346.427899	33346.685744	33348.671953	13-Mar-2025 17:02:47	33221.432269	124.995630	none	NaN	NaN
101	7	37	56	bathroom	sun_awnqiikzaispgmwo.tif	33348.677377	33348.936193	33350.921626	13-Mar-2025 17:02:47	33221.432269	127.245107	6	33351.580399	1.000000
101	7	38	14	bathroom	sun_abapwbhyhkfixyex.tif	33357.943983	33358.202356	33360.188077	13-Mar-2025 17:02:47	33221.432269	136.511713	none	NaN	NaN
101	7	39	60	bathroom	sun_azqyogdvyhahyram.tif	33360.202185	33360.460539	33362.445949	13-Mar-2025 17:02:47	33221.432269	138.769916	none	NaN	NaN
101	7	40	38	bathroom	sun_anhioqovhscjqqwb.tif	33362.452197	33362.710474	33364.696658	13-Mar-2025 17:02:47	33221.432269	141.019927	none	NaN	NaN
101	7	41	47	bathroom	sun_apynckhmoftszqoq.tif	33364.710509	33364.968805	33366.954538	13-Mar-2025 17:02:47	33221.432269	143.278240	none	NaN	NaN
101	7	42	12	bathroom	sun_aapitsgbtktqubfy.tif	33366.960564	33367.218794	33369.204965	13-Mar-2025 17:02:47	33221.432269	145.528295	none	NaN	NaN
101	7	43	22	bathroom	sun_agguqiubmwhqqunb.tif	33369.210447	33369.468823	33371.454793	13-Mar-2025 17:02:47	33221.432269	147.778178	none	NaN	NaN
101	7	44	46	bathroom	sun_apmqjbnwghzuhhzh.tif	33371.460480	33371.718763	33373.704259	13-Mar-2025 17:02:47	33221.432269	150.028211	none	NaN	NaN
101	7	45	58	bathroom	sun_axxbkopsgyouuebh.tif	33373.710529	33373.968770	33375.954432	13-Mar-2025 17:02:47	33221.432269	152.278260	none	NaN	NaN
101	7	46	35	bathroom	sun_alotolagknyrgtsk.tif	33375.960416	33376.218756	33378.204571	13-Mar-2025 17:02:47	33221.432269	154.528147	none	NaN	NaN
101	7	47	26	bathroom	sun_ahaulkltgpkeeemi.tif	33378.210411	33378.468662	33380.454820	13-Mar-2025 17:02:47	33221.432269	156.778142	6	33381.869441	1.000000
101	7	48	29	bathroom	sun_ahqjwnzgolcaoidx.tif	33387.485805	33387.743635	33389.729830	13-Mar-2025 17:02:47	33221.432269	166.053536	none	NaN	NaN
101	7	49	32	bathroom	sun_aleqenyvunhactkl.tif	33389.735236	33389.993651	33391.979264	13-Mar-2025 17:02:47	33221.432269	168.302966	none	NaN	NaN
101	7	50	15	bathroom	sun_abjtwfukuwddzted.tif	33391.985377	33392.244102	33394.229659	13-Mar-2025 17:02:47	33221.432269	170.553107	none	NaN	NaN
101	7	51	16	bathroom	sun_acduarbnmmoglmiv.tif	33394.235734	33394.493713	33396.479827	13-Mar-2025 17:02:47	33221.432269	172.803464	none	NaN	NaN
101	7	52	53	bathroom	sun_ausgutylgojavyoq.tif	33396.485686	33396.744064	33398.729731	13-Mar-2025 17:02:47	33221.432269	175.053416	none	NaN	NaN
101	7	53	23	bathroom	sun_aghyqhbptboemmoq.tif	33398.735713	33398.994053	33400.979804	13-Mar-2025 17:02:47	33221.432269	177.303444	none	NaN	NaN
101	7	54	17	bathroom	sun_acegryoqftbzowsg.tif	33400.985639	33401.244032	33403.229646	13-Mar-2025 17:02:47	33221.432269	179.553370	none	NaN	NaN
101	7	55	32	bathroom	sun_aleqenyvunhactkl.tif	33403.235255	33403.494021	33405.479409	13-Mar-2025 17:02:47	33221.432269	181.802986	none	NaN	NaN
101	7	56	37	bathroom	sun_amzlamotzwfkwjco.tif	33405.485628	33405.744117	33407.729430	13-Mar-2025 17:02:47	33221.432269	184.053359	none	NaN	NaN
101	7	57	59	bathroom	sun_axyrejkiiaqiurjk.tif	33407.735601	33407.993534	33409.980127	13-Mar-2025 17:02:47	33221.432269	186.303332	6	33410.399142	1.000000
101	7	58	41	bathroom	sun_aoybiabnpadelefl.tif	33417.001873	33417.260582	33419.246466	13-Mar-2025 17:02:47	33221.432269	195.569604	none	NaN	NaN
101	7	59	26	bathroom	sun_ahaulkltgpkeeemi.tif	33419.251800	33419.510567	33421.496288	13-Mar-2025 17:02:47	33221.432269	197.819531	none	NaN	NaN
101	7	60	55	bathroom	sun_avhrdrntsqrjzccq.tif	33421.501736	33421.760065	33423.745612	13-Mar-2025 17:02:47	33221.432269	200.069467	none	NaN	NaN
101	7	61	40	bathroom	sun_aofnryafpsjimzsb.tif	33423.751800	33424.010067	33425.996407	13-Mar-2025 17:02:47	33221.432269	202.319531	none	NaN	NaN
101	7	62	33	bathroom	sun_aljolscmmzydegqp.tif	33426.001747	33426.260042	33428.246354	13-Mar-2025 17:02:47	33221.432269	204.569478	none	NaN	NaN
101	7	63	24	bathroom	sun_agrwbmhcpmfuwmsg.tif	33428.259988	33428.518314	33430.504609	13-Mar-2025 17:02:47	33221.432269	206.827719	none	NaN	NaN
101	7	64	39	bathroom	sun_anryaplzeujmzfkd.tif	33430.518346	33430.776636	33432.762257	13-Mar-2025 17:02:47	33221.432269	209.086077	none	NaN	NaN
101	7	65	38	bathroom	sun_anhioqovhscjqqwb.tif	33432.768367	33433.026563	33435.012352	13-Mar-2025 17:02:47	33221.432269	211.336098	none	NaN	NaN
101	7	66	15	bathroom	sun_abjtwfukuwddzted.tif	33435.035134	33435.293388	33437.279142	13-Mar-2025 17:02:47	33221.432269	213.602865	none	NaN	NaN
101	7	67	42	bathroom	sun_apeeialkgkuxddgh.tif	33437.293374	33437.551581	33439.537587	13-Mar-2025 17:02:47	33221.432269	215.861105	5	33440.658369	1.000000
101	7	68	11	bathroom	labelme_sfxiulhjbhlyiyt.tif	33446.568115	33446.826664	33448.812073	13-Mar-2025 17:02:47	33221.432269	225.135846	5	33450.113668	0.000000
101	7	69	12	bathroom	sun_aapitsgbtktqubfy.tif	33455.834964	33456.093242	33458.079293	13-Mar-2025 17:02:47	33221.432269	234.402695	none	NaN	NaN
101	7	70	43	bathroom	sun_apjevzvycyhuqghb.tif	33458.084874	33458.343221	33460.328775	13-Mar-2025 17:02:47	33221.432269	236.652605	5	33461.509957	0.000000
101	7	71	47	bathroom	sun_apynckhmoftszqoq.tif	33467.351976	33467.610194	33469.596451	13-Mar-2025 17:02:47	33221.432269	245.919707	none	NaN	NaN
101	7	72	34	bathroom	sun_alkosphxlxwjwgjd.tif	33469.610177	33469.868500	33471.854317	13-Mar-2025 17:02:47	33221.432269	248.177908	none	NaN	NaN
101	7	73	30	bathroom	sun_ajlawzvmubibwbpy.tif	33471.859775	33472.118107	33474.103570	13-Mar-2025 17:02:47	33221.432269	250.427506	none	NaN	NaN
101	7	74	56	bathroom	sun_awnqiikzaispgmwo.tif	33474.109742	33474.368089	33476.353578	13-Mar-2025 17:02:47	33221.432269	252.677473	none	NaN	NaN
101	7	75	36	bathroom	sun_ambriybtogmepttm.tif	33476.360179	33476.618445	33478.604407	13-Mar-2025 17:02:47	33221.432269	254.927910	none	NaN	NaN
101	7	76	46	bathroom	sun_apmqjbnwghzuhhzh.tif	33478.609663	33478.868433	33480.854276	13-Mar-2025 17:02:47	33221.432269	257.177393	none	NaN	NaN
101	7	77	14	bathroom	sun_abapwbhyhkfixyex.tif	33480.859652	33481.118021	33483.104223	13-Mar-2025 17:02:47	33221.432269	259.427382	none	NaN	NaN
101	7	78	19	bathroom	sun_aclfzgynxzxlbepz.tif	33483.109513	33483.367935	33485.353504	13-Mar-2025 17:02:47	33221.432269	261.677244	none	NaN	NaN
101	7	79	25	bathroom	sun_agyqfjcfkdcydepw.tif	33485.359560	33485.617804	33487.603341	13-Mar-2025 17:02:47	33221.432269	263.927291	none	NaN	NaN
101	7	80	13	bathroom	sun_aavhrsfjbserjtht.tif	33487.609626	33487.867986	33489.853833	13-Mar-2025 17:02:47	33221.432269	266.177357	none	NaN	NaN
101	7	81	60	bathroom	sun_azqyogdvyhahyram.tif	33489.859510	33490.117958	33492.103494	13-Mar-2025 17:02:47	33221.432269	268.427241	none	NaN	NaN
101	7	82	50	bathroom	sun_aspsyogrekjtfozg.tif	33492.109506	33492.367939	33494.353296	13-Mar-2025 17:02:47	33221.432269	270.677237	none	NaN	NaN
101	7	83	22	bathroom	sun_agguqiubmwhqqunb.tif	33494.359487	33494.617940	33496.603686	13-Mar-2025 17:02:47	33221.432269	272.927217	none	NaN	NaN
101	7	84	20	bathroom	sun_afcoljnjfoxjtgja.tif	33496.617852	33496.876256	33498.862176	13-Mar-2025 17:02:47	33221.432269	275.185583	none	NaN	NaN
101	7	85	18	bathroom	sun_acgyywnybuveqsro.tif	33498.876112	33499.134442	33501.120043	13-Mar-2025 17:02:47	33221.432269	277.443843	none	NaN	NaN
101	7	86	58	bathroom	sun_axxbkopsgyouuebh.tif	33501.126209	33501.384559	33503.370294	13-Mar-2025 17:02:47	33221.432269	279.693940	none	NaN	NaN
101	7	87	35	bathroom	sun_alotolagknyrgtsk.tif	33503.376174	33503.634535	33505.620036	13-Mar-2025 17:02:47	33221.432269	281.943904	none	NaN	NaN
101	7	88	44	bathroom	sun_apkruvsevgegsdwp.tif	33505.626113	33505.884521	33507.870308	13-Mar-2025 17:02:47	33221.432269	284.193844	none	NaN	NaN
101	7	89	48	bathroom	sun_aqrpegblszgcoujh.tif	33507.876073	33508.134501	33510.120151	13-Mar-2025 17:02:47	33221.432269	286.443803	6	33510.444714	1.000000
101	7	90	45	bathroom	sun_apkxzenqapsujocq.tif	33517.142731	33517.401473	33519.386717	13-Mar-2025 17:02:47	33221.432269	295.710462	none	NaN	NaN
101	7	91	57	bathroom	sun_axldvoqbuvuggfmq.tif	33519.392720	33519.651507	33521.636485	13-Mar-2025 17:02:47	33221.432269	297.960451	none	NaN	NaN
101	7	92	51	bathroom	sun_atstyziqcmkahyxk.tif	33521.651547	33521.909812	33523.896037	13-Mar-2025 17:02:47	33221.432269	300.219277	none	NaN	NaN
101	7	93	31	bathroom	sun_akiytfaagpdsphgz.tif	33523.909851	33524.168171	33526.153649	13-Mar-2025 17:02:47	33221.432269	302.477582	none	NaN	NaN
101	7	94	29	bathroom	sun_ahqjwnzgolcaoidx.tif	33526.168170	33526.425963	33528.412743	13-Mar-2025 17:02:47	33221.432269	304.735901	none	NaN	NaN
101	7	95	54	bathroom	sun_auzqhkafidnkrwmo.tif	33528.417683	33528.676010	33530.661674	13-Mar-2025 17:02:47	33221.432269	306.985414	none	NaN	NaN
101	7	96	49	bathroom	sun_asfwthctfqerjvxr.tif	33530.667598	33530.926415	33532.912213	13-Mar-2025 17:02:47	33221.432269	309.235329	none	NaN	NaN
101	7	97	52	bathroom	sun_aunuadmjocsddsrl.tif	33532.925972	33533.184732	33535.170118	13-Mar-2025 17:02:47	33221.432269	311.493702	none	NaN	NaN
101	7	98	28	bathroom	sun_ahijqszoswveeyji.tif	33535.175916	33535.434290	33537.420403	13-Mar-2025 17:02:47	33221.432269	313.743647	none	NaN	NaN
101	7	99	21	bathroom	sun_aggnnqpdorgxpvce.tif	33537.425894	33537.684751	33539.670163	13-Mar-2025 17:02:47	33221.432269	315.993625	6	33540.367049	0.000000
101	7	100	27	bathroom	sun_ahcvzmoyaycdoftf.tif	33546.700865	33546.959041	33548.944821	13-Mar-2025 17:02:47	33221.432269	325.268596	5	33551.882088	1.000000
