subject	run	trial	texture	category	image	trialOnset	itiOnset	trialEnd	triggerDate	triggerTimeStamp	Onsets	responseKey	responseTime	accuracy
124	4	1	18	kitchen	sun_aaxxjlsuzvqlgylf.tif	16079.569447	16079.827820	16081.813897	19-May-2025 16:46:02	16075.540609	4.028838	6	16084.271431	1.000000
124	4	2	27	kitchen	sun_acxkpeoqbwcxfvip.tif	16088.844392	16089.102628	16091.088243	19-May-2025 16:46:02	16075.540609	13.303782	none	NaN	NaN
124	4	3	29	kitchen	sun_admlmbcdswaszruo.tif	16091.094329	16091.352621	16093.338276	19-May-2025 16:46:02	16075.540609	15.553720	none	NaN	NaN
124	4	4	36	kitchen	sun_aggjlwcdjsjcaemh.tif	16093.352553	16093.610884	16095.596807	19-May-2025 16:46:02	16075.540609	17.811943	5	16096.284263	1.000000
124	4	5	44	kitchen	sun_ahywdevtimnqcsln.tif	16102.635946	16102.894293	16104.879812	19-May-2025 16:46:02	16075.540609	27.095336	none	NaN	NaN
124	4	6	45	kitchen	sun_aixorpehvfykdynp.tif	16104.885923	16105.144256	16107.129897	19-May-2025 16:46:02	16075.540609	29.345314	none	NaN	NaN
124	4	7	25	kitchen	sun_acgtpgfybqjmzeyw.tif	16107.135905	16107.394606	16109.379905	19-May-2025 16:46:02	16075.540609	31.595296	none	NaN	NaN
124	4	8	38	kitchen	sun_agubuxuukhzyzpdp.tif	16109.385826	16109.644215	16111.630039	19-May-2025 16:46:02	16075.540609	33.845217	none	NaN	NaN
124	4	9	35	kitchen	sun_afuyedyxivkhecmu.tif	16111.636148	16111.894177	16113.880931	19-May-2025 16:46:02	16075.540609	36.095539	none	NaN	NaN
124	4	10	54	kitchen	sun_auticobqsbwgoppi.tif	16113.894196	16114.152524	16116.138452	19-May-2025 16:46:02	16075.540609	38.353587	none	NaN	NaN
124	4	11	22	kitchen	sun_abpwyqmlzafvklqo.tif	16116.144525	16116.402885	16118.388537	19-May-2025 16:46:02	16075.540609	40.603915	none	NaN	NaN
124	4	12	16	kitchen	sun_aapllqyqlykszopd.tif	16118.394112	16118.652488	16120.638118	19-May-2025 16:46:02	16075.540609	42.853503	none	NaN	NaN
124	4	13	19	kitchen	sun_abdenxonkemggwsq.tif	16120.644091	16120.902471	16122.888331	19-May-2025 16:46:02	16075.540609	45.103482	none	NaN	NaN
124	4	14	58	kitchen	sun_aymvwlarqodbwuoc.tif	16122.894458	16123.152814	16125.138942	19-May-2025 16:46:02	16075.540609	47.353849	none	NaN	NaN
124	4	15	55	kitchen	sun_avszsnwsbuqfgzbn.tif	16125.144062	16125.402800	16127.388430	19-May-2025 16:46:02	16075.540609	49.603452	none	NaN	NaN
124	4	16	28	kitchen	sun_adgqasybjyktddhj.tif	16127.402410	16127.660734	16129.646552	19-May-2025 16:46:02	16075.540609	51.861801	none	NaN	NaN
124	4	17	51	kitchen	sun_aqeaevwwwjoqhzvl.tif	16129.652735	16129.911199	16131.897336	19-May-2025 16:46:02	16075.540609	54.112126	none	NaN	NaN
124	4	18	49	kitchen	sun_akcjzhbbjlbogpdi.tif	16131.911077	16132.169403	16134.155344	19-May-2025 16:46:02	16075.540609	56.370468	none	NaN	NaN
124	4	19	40	kitchen	sun_ahdycvpopffkzzsu.tif	16134.161014	16134.419386	16136.405168	19-May-2025 16:46:02	16075.540609	58.620404	5	16137.219415	1.000000
124	4	20	20	kitchen	sun_abdxkyyxwfskuaqb.tif	16143.435582	16143.693919	16145.680010	19-May-2025 16:46:02	16075.540609	67.894973	5	16146.574423	0.000000
124	4	21	31	kitchen	sun_aehawpgmrlhlvcow.tif	16152.702181	16152.960505	16154.946270	19-May-2025 16:46:02	16075.540609	77.161572	none	NaN	NaN
124	4	22	56	kitchen	sun_awcpdzzznmweyyhv.tif	16154.952145	16155.210481	16157.196477	19-May-2025 16:46:02	16075.540609	79.411536	none	NaN	NaN
124	4	23	43	kitchen	sun_ahspylgoovwmwvgk.tif	16157.202104	16157.460469	16159.446391	19-May-2025 16:46:02	16075.540609	81.661495	none	NaN	NaN
124	4	24	47	kitchen	sun_ajkqhtgcbgpcwrwn.tif	16159.452091	16159.710446	16161.696282	19-May-2025 16:46:02	16075.540609	83.911482	5	16163.034804	0.000000
124	4	25	41	kitchen	sun_ahljzhgcdpomplvg.tif	16168.718698	16168.977035	16170.962781	19-May-2025 16:46:02	16075.540609	93.178089	none	NaN	NaN
124	4	26	46	kitchen	sun_ajcbwwvdlsvjyzje.tif	16170.969026	16171.227397	16173.213378	19-May-2025 16:46:02	16075.540609	95.428417	none	NaN	NaN
124	4	27	12	kitchen	labelme_kxvouciolcpqplr.tif	16173.218616	16173.477381	16175.462481	19-May-2025 16:46:02	16075.540609	97.678007	none	NaN	NaN
124	4	28	59	kitchen	sun_aypmqwcualkenuoe.tif	16175.469022	16175.727360	16177.713391	19-May-2025 16:46:02	16075.540609	99.928412	none	NaN	NaN
124	4	29	26	kitchen	sun_acwjdupvyjsugpay.tif	16177.718942	16177.977337	16179.963194	19-May-2025 16:46:02	16075.540609	102.178332	none	NaN	NaN
124	4	30	37	kitchen	sun_agorklincwxrdtga.tif	16179.977320	16180.235662	16182.221754	19-May-2025 16:46:02	16075.540609	104.436711	none	NaN	NaN
124	4	31	52	kitchen	sun_auaiucuqpdausiva.tif	16182.227291	16182.485640	16184.471319	19-May-2025 16:46:02	16075.540609	106.686681	none	NaN	NaN
124	4	32	60	kitchen	sun_azmutvzbxypaceni.tif	16184.476871	16184.735614	16186.721423	19-May-2025 16:46:02	16075.540609	108.936262	none	NaN	NaN
124	4	33	48	kitchen	sun_akchetnepxlcxhsu.tif	16186.735597	16186.993939	16188.979520	19-May-2025 16:46:02	16075.540609	111.194988	none	NaN	NaN
124	4	34	50	kitchen	sun_amjjdeyrggfqgmom.tif	16188.993902	16189.251866	16191.238327	19-May-2025 16:46:02	16075.540609	113.453292	none	NaN	NaN
124	4	35	57	kitchen	sun_axyyrmzcupyhlivc.tif	16191.243792	16191.502101	16193.487895	19-May-2025 16:46:02	16075.540609	115.703182	none	NaN	NaN
124	4	36	15	kitchen	sun_aamedkxepzlwuxes.tif	16193.493449	16193.752214	16195.737858	19-May-2025 16:46:02	16075.540609	117.952839	none	NaN	NaN
124	4	37	14	kitchen	sun_aadbddgrdsjugojn.tif	16195.743400	16196.002304	16197.987665	19-May-2025 16:46:02	16075.540609	120.202791	none	NaN	NaN
124	4	38	39	kitchen	sun_agzzivivdpnawacl.tif	16197.993791	16198.252153	16200.237832	19-May-2025 16:46:02	16075.540609	122.453181	none	NaN	NaN
124	4	39	53	kitchen	sun_aunzlwrbjumxhwdj.tif	16200.243430	16200.501760	16202.488027	19-May-2025 16:46:02	16075.540609	124.702821	none	NaN	NaN
124	4	40	21	kitchen	sun_abftihopvusyfakt.tif	16202.493374	16202.751758	16204.737953	19-May-2025 16:46:02	16075.540609	126.952765	none	NaN	NaN
124	4	41	33	kitchen	sun_aeqdocilnnpuvuhx.tif	16204.743347	16205.001730	16206.987726	19-May-2025 16:46:02	16075.540609	129.202737	none	NaN	NaN
124	4	42	23	kitchen	sun_abrcnpqqhmjwekyf.tif	16206.993312	16207.251706	16209.237408	19-May-2025 16:46:02	16075.540609	131.452702	none	NaN	NaN
124	4	43	34	kitchen	sun_aexklacwqwezaorf.tif	16209.243319	16209.501683	16211.487553	19-May-2025 16:46:02	16075.540609	133.702709	none	NaN	NaN
124	4	44	42	kitchen	sun_ahpczsiumwwocjkv.tif	16211.493275	16211.751660	16213.737304	19-May-2025 16:46:02	16075.540609	135.952666	none	NaN	NaN
124	4	45	32	kitchen	sun_aenotlpyftoioydp.tif	16213.743280	16214.001651	16215.987470	19-May-2025 16:46:02	16075.540609	138.202671	none	NaN	NaN
124	4	46	30	kitchen	sun_aegoxogugdkwpmpj.tif	16215.993249	16216.251621	16218.237763	19-May-2025 16:46:02	16075.540609	140.452639	none	NaN	NaN
124	4	47	11	kitchen	labelme_brsyyvweiuaazfr.tif	16218.243228	16218.501603	16220.487082	19-May-2025 16:46:02	16075.540609	142.702619	none	NaN	NaN
124	4	48	13	kitchen	labelme_rykdqxenmhulbdn.tif	16220.493246	16220.751572	16222.737633	19-May-2025 16:46:02	16075.540609	144.952636	5	16223.650660	1.000000
124	4	49	17	kitchen	sun_aarfiyshqohlwkmo.tif	16229.759812	16230.018173	16232.003832	19-May-2025 16:46:02	16075.540609	154.219203	none	NaN	NaN
124	4	50	24	kitchen	sun_acfmftudsenhrfhy.tif	16232.009813	16232.268162	16234.253657	19-May-2025 16:46:02	16075.540609	156.469204	none	NaN	NaN
124	4	51	41	kitchen	sun_ahljzhgcdpomplvg.tif	16234.260056	16234.518574	16236.504186	19-May-2025 16:46:02	16075.540609	158.719446	5	16237.299268	1.000000
124	4	52	35	kitchen	sun_afuyedyxivkhecmu.tif	16243.535151	16243.793528	16245.779062	19-May-2025 16:46:02	16075.540609	167.994542	none	NaN	NaN
124	4	53	28	kitchen	sun_adgqasybjyktddhj.tif	16245.784702	16246.043528	16248.028970	19-May-2025 16:46:02	16075.540609	170.244092	none	NaN	NaN
124	4	54	42	kitchen	sun_ahpczsiumwwocjkv.tif	16248.034694	16248.293015	16250.278829	19-May-2025 16:46:02	16075.540609	172.494085	none	NaN	NaN
124	4	55	37	kitchen	sun_agorklincwxrdtga.tif	16250.285034	16250.543372	16252.528844	19-May-2025 16:46:02	16075.540609	174.744425	none	NaN	NaN
124	4	56	52	kitchen	sun_auaiucuqpdausiva.tif	16252.534997	16252.792924	16254.779390	19-May-2025 16:46:02	16075.540609	176.994387	none	NaN	NaN
124	4	57	16	kitchen	sun_aapllqyqlykszopd.tif	16254.784587	16255.043350	16257.028880	19-May-2025 16:46:02	16075.540609	179.243978	none	NaN	NaN
124	4	58	56	kitchen	sun_awcpdzzznmweyyhv.tif	16257.034575	16257.293409	16259.279008	19-May-2025 16:46:02	16075.540609	181.493965	5	16260.493231	0.000000
124	4	59	14	kitchen	sun_aadbddgrdsjugojn.tif	16266.309520	16266.567851	16268.553543	19-May-2025 16:46:02	16075.540609	190.768910	none	NaN	NaN
124	4	60	30	kitchen	sun_aegoxogugdkwpmpj.tif	16268.567837	16268.826163	16270.812086	19-May-2025 16:46:02	16075.540609	193.027228	none	NaN	NaN
124	4	61	23	kitchen	sun_abrcnpqqhmjwekyf.tif	16270.817770	16271.076103	16273.061837	19-May-2025 16:46:02	16075.540609	195.277161	5	16274.056263	0.000000
124	4	62	55	kitchen	sun_avszsnwsbuqfgzbn.tif	16280.084405	16280.342732	16282.328215	19-May-2025 16:46:02	16075.540609	204.543795	none	NaN	NaN
124	4	63	12	kitchen	labelme_kxvouciolcpqplr.tif	16282.334380	16282.592713	16284.578551	19-May-2025 16:46:02	16075.540609	206.793771	none	NaN	NaN
124	4	64	39	kitchen	sun_agzzivivdpnawacl.tif	16284.584345	16284.842696	16286.828799	19-May-2025 16:46:02	16075.540609	209.043735	none	NaN	NaN
124	4	65	53	kitchen	sun_aunzlwrbjumxhwdj.tif	16286.834343	16287.092670	16289.078357	19-May-2025 16:46:02	16075.540609	211.293733	none	NaN	NaN
124	4	66	58	kitchen	sun_aymvwlarqodbwuoc.tif	16289.084327	16289.342505	16291.328403	19-May-2025 16:46:02	16075.540609	213.543717	none	NaN	NaN
124	4	67	22	kitchen	sun_abpwyqmlzafvklqo.tif	16291.334287	16291.593016	16293.578439	19-May-2025 16:46:02	16075.540609	215.793678	5	16294.592539	1.000000
124	4	68	20	kitchen	sun_abdxkyyxwfskuaqb.tif	16300.609671	16300.867520	16302.853784	19-May-2025 16:46:02	16075.540609	225.069062	none	NaN	NaN
124	4	69	18	kitchen	sun_aaxxjlsuzvqlgylf.tif	16302.859159	16303.117550	16305.103477	19-May-2025 16:46:02	16075.540609	227.318550	none	NaN	NaN
124	4	70	60	kitchen	sun_azmutvzbxypaceni.tif	16305.109480	16305.367895	16307.353388	19-May-2025 16:46:02	16075.540609	229.568871	none	NaN	NaN
124	4	71	57	kitchen	sun_axyyrmzcupyhlivc.tif	16307.359132	16307.617474	16309.602995	19-May-2025 16:46:02	16075.540609	231.818523	none	NaN	NaN
124	4	72	47	kitchen	sun_ajkqhtgcbgpcwrwn.tif	16309.609157	16309.867958	16311.853022	19-May-2025 16:46:02	16075.540609	234.068548	none	NaN	NaN
124	4	73	15	kitchen	sun_aamedkxepzlwuxes.tif	16311.859396	16312.117929	16314.103558	19-May-2025 16:46:02	16075.540609	236.318787	none	NaN	NaN
124	4	74	49	kitchen	sun_akcjzhbbjlbogpdi.tif	16314.109559	16314.367917	16316.353358	19-May-2025 16:46:02	16075.540609	238.568950	none	NaN	NaN
124	4	75	44	kitchen	sun_ahywdevtimnqcsln.tif	16316.359089	16316.617437	16318.603233	19-May-2025 16:46:02	16075.540609	240.818479	5	16319.468633	1.000000
124	4	76	33	kitchen	sun_aeqdocilnnpuvuhx.tif	16325.633993	16325.892336	16327.878002	19-May-2025 16:46:02	16075.540609	250.093384	none	NaN	NaN
124	4	77	36	kitchen	sun_aggjlwcdjsjcaemh.tif	16327.883940	16328.142321	16330.128413	19-May-2025 16:46:02	16075.540609	252.343331	none	NaN	NaN
124	4	78	45	kitchen	sun_aixorpehvfykdynp.tif	16330.133938	16330.392299	16332.377760	19-May-2025 16:46:02	16075.540609	254.593329	none	NaN	NaN
124	4	79	24	kitchen	sun_acfmftudsenhrfhy.tif	16332.383924	16332.642277	16334.628354	19-May-2025 16:46:02	16075.540609	256.843314	none	NaN	NaN
124	4	80	27	kitchen	sun_acxkpeoqbwcxfvip.tif	16334.633881	16334.892261	16336.878036	19-May-2025 16:46:02	16075.540609	259.093272	none	NaN	NaN
124	4	81	29	kitchen	sun_admlmbcdswaszruo.tif	16336.883890	16337.142241	16339.128134	19-May-2025 16:46:02	16075.540609	261.343281	5	16339.976697	0.000000
124	4	82	34	kitchen	sun_aexklacwqwezaorf.tif	16346.158830	16346.417165	16348.403313	19-May-2025 16:46:02	16075.540609	270.618220	none	NaN	NaN
124	4	83	38	kitchen	sun_agubuxuukhzyzpdp.tif	16348.408757	16348.667143	16350.652918	19-May-2025 16:46:02	16075.540609	272.868147	none	NaN	NaN
124	4	84	59	kitchen	sun_aypmqwcualkenuoe.tif	16350.658760	16350.917558	16352.902631	19-May-2025 16:46:02	16075.540609	275.118151	none	NaN	NaN
124	4	85	13	kitchen	labelme_rykdqxenmhulbdn.tif	16352.909140	16353.167106	16355.152923	19-May-2025 16:46:02	16075.540609	277.368531	none	NaN	NaN
124	4	86	51	kitchen	sun_aqeaevwwwjoqhzvl.tif	16355.159137	16355.417095	16357.403022	19-May-2025 16:46:02	16075.540609	279.618527	5	16358.967300	0.000000
124	4	87	43	kitchen	sun_ahspylgoovwmwvgk.tif	16364.425300	16364.684097	16366.669291	19-May-2025 16:46:02	16075.540609	288.884691	none	NaN	NaN
124	4	88	31	kitchen	sun_aehawpgmrlhlvcow.tif	16366.675309	16366.934063	16368.919712	19-May-2025 16:46:02	16075.540609	291.134700	none	NaN	NaN
124	4	89	40	kitchen	sun_ahdycvpopffkzzsu.tif	16368.925266	16369.184004	16371.169165	19-May-2025 16:46:02	16075.540609	293.384657	6	16372.890594	0.000000
124	4	90	48	kitchen	sun_akchetnepxlcxhsu.tif	16378.191884	16378.450228	16380.435926	19-May-2025 16:46:02	16075.540609	302.651274	none	NaN	NaN
124	4	91	19	kitchen	sun_abdenxonkemggwsq.tif	16380.441864	16380.700190	16382.686052	19-May-2025 16:46:02	16075.540609	304.901255	5	16384.491247	1.000000
124	4	92	46	kitchen	sun_ajcbwwvdlsvjyzje.tif	16389.716777	16389.975116	16391.960673	19-May-2025 16:46:02	16075.540609	314.176168	none	NaN	NaN
124	4	93	25	kitchen	sun_acgtpgfybqjmzeyw.tif	16391.966768	16392.225100	16394.210906	19-May-2025 16:46:02	16075.540609	316.426159	none	NaN	NaN
124	4	94	26	kitchen	sun_acwjdupvyjsugpay.tif	16394.216747	16394.475078	16396.461281	19-May-2025 16:46:02	16075.540609	318.676137	none	NaN	NaN
124	4	95	54	kitchen	sun_auticobqsbwgoppi.tif	16396.475062	16396.733395	16398.719313	19-May-2025 16:46:02	16075.540609	320.934453	none	NaN	NaN
124	4	96	32	kitchen	sun_aenotlpyftoioydp.tif	16398.725014	16398.983374	16400.969037	19-May-2025 16:46:02	16075.540609	323.184404	none	NaN	NaN
124	4	97	11	kitchen	labelme_brsyyvweiuaazfr.tif	16400.975020	16401.233353	16403.219209	19-May-2025 16:46:02	16075.540609	325.434411	none	NaN	NaN
124	4	98	21	kitchen	sun_abftihopvusyfakt.tif	16403.224975	16403.483338	16405.469582	19-May-2025 16:46:02	16075.540609	327.684365	none	NaN	NaN
124	4	99	17	kitchen	sun_aarfiyshqohlwkmo.tif	16405.483566	16405.741648	16407.728128	19-May-2025 16:46:02	16075.540609	329.942957	none	NaN	NaN
124	4	100	50	kitchen	sun_amjjdeyrggfqgmom.tif	16407.741628	16407.999957	16409.985483	19-May-2025 16:46:02	16075.540609	332.201018	none	NaN	NaN
