subject	run	trial	texture	category	image	trialOnset	itiOnset	trialEnd	triggerDate	triggerTimeStamp	Onsets	responseKey	responseTime	accuracy
122	10	1	23	kitchen	sun_abrcnpqqhmjwekyf.tif	6334.806895	6335.065354	6337.050728	14-May-2025 13:55:48	6330.783844	4.023051	none	NaN	NaN
122	10	2	12	kitchen	labelme_kxvouciolcpqplr.tif	6337.064983	6337.323426	6339.309138	14-May-2025 13:55:48	6330.783844	6.281140	none	NaN	NaN
122	10	3	49	kitchen	sun_akcjzhbbjlbogpdi.tif	6339.323336	6339.581254	6341.567107	14-May-2025 13:55:48	6330.783844	8.539492	none	NaN	NaN
122	10	4	20	kitchen	sun_abdxkyyxwfskuaqb.tif	6341.581486	6341.840035	6343.825450	14-May-2025 13:55:48	6330.783844	10.797642	5	6344.775523	1.000000
122	10	5	45	kitchen	sun_aixorpehvfykdynp.tif	6350.866249	6351.123234	6353.110950	14-May-2025 13:55:48	6330.783844	20.082405	none	NaN	NaN
122	10	6	47	kitchen	sun_ajkqhtgcbgpcwrwn.tif	6353.123451	6353.381753	6355.367228	14-May-2025 13:55:48	6330.783844	22.339608	none	NaN	NaN
122	10	7	32	kitchen	sun_aenotlpyftoioydp.tif	6355.381130	6355.639936	6357.625679	14-May-2025 13:55:48	6330.783844	24.597286	6	6358.759576	1.000000
122	10	8	60	kitchen	sun_azmutvzbxypaceni.tif	6364.656483	6364.914822	6366.900448	14-May-2025 13:55:48	6330.783844	33.872639	none	NaN	NaN
122	10	9	19	kitchen	sun_abdenxonkemggwsq.tif	6366.914694	6367.174992	6369.158591	14-May-2025 13:55:48	6330.783844	36.130850	none	NaN	NaN
122	10	10	17	kitchen	sun_aarfiyshqohlwkmo.tif	6369.173244	6369.431465	6371.417369	14-May-2025 13:55:48	6330.783844	38.389401	5	6372.808989	1.000000
122	10	11	53	kitchen	sun_aunzlwrbjumxhwdj.tif	6378.456283	6378.714616	6380.700418	14-May-2025 13:55:48	6330.783844	47.672439	none	NaN	NaN
122	10	12	16	kitchen	sun_aapllqyqlykszopd.tif	6380.714572	6380.973028	6382.958719	14-May-2025 13:55:48	6330.783844	49.930728	none	NaN	NaN
122	10	13	28	kitchen	sun_adgqasybjyktddhj.tif	6382.973015	6383.231355	6385.217256	14-May-2025 13:55:48	6330.783844	52.189171	none	NaN	NaN
122	10	14	57	kitchen	sun_axyyrmzcupyhlivc.tif	6385.231214	6385.489667	6387.475212	14-May-2025 13:55:48	6330.783844	54.447370	none	NaN	NaN
122	10	15	46	kitchen	sun_ajcbwwvdlsvjyzje.tif	6387.489644	6387.747867	6389.733530	14-May-2025 13:55:48	6330.783844	56.705801	none	NaN	NaN
122	10	16	44	kitchen	sun_ahywdevtimnqcsln.tif	6389.747530	6390.006289	6391.992030	14-May-2025 13:55:48	6330.783844	58.963687	none	NaN	NaN
122	10	17	59	kitchen	sun_aypmqwcualkenuoe.tif	6392.006592	6392.264908	6394.250492	14-May-2025 13:55:48	6330.783844	61.222748	none	NaN	NaN
122	10	18	55	kitchen	sun_avszsnwsbuqfgzbn.tif	6394.264521	6394.523016	6396.509042	14-May-2025 13:55:48	6330.783844	63.480677	6	6397.649619	1.000000
122	10	19	33	kitchen	sun_aeqdocilnnpuvuhx.tif	6403.548049	6403.806781	6405.792205	14-May-2025 13:55:48	6330.783844	72.764205	none	NaN	NaN
122	10	20	36	kitchen	sun_aggjlwcdjsjcaemh.tif	6405.805740	6406.064305	6408.050362	14-May-2025 13:55:48	6330.783844	75.021896	none	NaN	NaN
122	10	21	35	kitchen	sun_afuyedyxivkhecmu.tif	6408.064058	6408.322863	6410.307886	14-May-2025 13:55:48	6330.783844	77.280214	none	NaN	NaN
122	10	22	15	kitchen	sun_aamedkxepzlwuxes.tif	6410.322736	6410.580826	6412.567016	14-May-2025 13:55:48	6330.783844	79.538892	none	NaN	NaN
122	10	23	24	kitchen	sun_acfmftudsenhrfhy.tif	6412.581038	6412.839136	6414.825474	14-May-2025 13:55:48	6330.783844	81.797194	none	NaN	NaN
122	10	24	38	kitchen	sun_agubuxuukhzyzpdp.tif	6414.839578	6415.097551	6417.083434	14-May-2025 13:55:48	6330.783844	84.055735	none	NaN	NaN
122	10	25	42	kitchen	sun_ahpczsiumwwocjkv.tif	6417.097748	6417.356031	6419.341625	14-May-2025 13:55:48	6330.783844	86.313905	none	NaN	NaN
122	10	26	31	kitchen	sun_aehawpgmrlhlvcow.tif	6419.356360	6419.614279	6421.600635	14-May-2025 13:55:48	6330.783844	88.572516	none	NaN	NaN
122	10	27	51	kitchen	sun_aqeaevwwwjoqhzvl.tif	6421.614066	6421.872717	6423.858043	14-May-2025 13:55:48	6330.783844	90.830222	none	NaN	NaN
122	10	28	40	kitchen	sun_ahdycvpopffkzzsu.tif	6423.872702	6424.130902	6426.116869	14-May-2025 13:55:48	6330.783844	93.088859	none	NaN	NaN
122	10	29	26	kitchen	sun_acwjdupvyjsugpay.tif	6426.130761	6426.389332	6428.375326	14-May-2025 13:55:48	6330.783844	95.346918	none	NaN	NaN
122	10	30	37	kitchen	sun_agorklincwxrdtga.tif	6428.381197	6428.639199	6430.625265	14-May-2025 13:55:48	6330.783844	97.597353	none	NaN	NaN
122	10	31	50	kitchen	sun_amjjdeyrggfqgmom.tif	6430.639987	6430.898934	6432.883988	14-May-2025 13:55:48	6330.783844	99.856144	none	NaN	NaN
122	10	32	13	kitchen	labelme_rykdqxenmhulbdn.tif	6432.897852	6433.155949	6435.142359	14-May-2025 13:55:48	6330.783844	102.114008	5	6436.442189	0.000000
122	10	33	39	kitchen	sun_agzzivivdpnawacl.tif	6442.180879	6442.439092	6444.425334	14-May-2025 13:55:48	6330.783844	111.397036	none	NaN	NaN
122	10	34	34	kitchen	sun_aexklacwqwezaorf.tif	6444.439502	6444.697410	6446.684052	14-May-2025 13:55:48	6330.783844	113.655659	none	NaN	NaN
122	10	35	21	kitchen	sun_abftihopvusyfakt.tif	6446.697381	6446.955839	6448.941359	14-May-2025 13:55:48	6330.783844	115.913537	none	NaN	NaN
122	10	36	30	kitchen	sun_aegoxogugdkwpmpj.tif	6448.955826	6449.214051	6451.200388	14-May-2025 13:55:48	6330.783844	118.171982	none	NaN	NaN
122	10	37	27	kitchen	sun_acxkpeoqbwcxfvip.tif	6451.214065	6451.472639	6453.458324	14-May-2025 13:55:48	6330.783844	120.430222	none	NaN	NaN
122	10	38	14	kitchen	sun_aadbddgrdsjugojn.tif	6453.472013	6453.730698	6455.716451	14-May-2025 13:55:48	6330.783844	122.688169	none	NaN	NaN
122	10	39	56	kitchen	sun_awcpdzzznmweyyhv.tif	6455.730312	6455.989257	6457.974113	14-May-2025 13:55:48	6330.783844	124.946468	none	NaN	NaN
122	10	40	18	kitchen	sun_aaxxjlsuzvqlgylf.tif	6457.989249	6458.247360	6460.233246	14-May-2025 13:55:48	6330.783844	127.205405	none	NaN	NaN
122	10	41	11	kitchen	labelme_brsyyvweiuaazfr.tif	6460.247959	6460.505644	6462.492544	14-May-2025 13:55:48	6330.783844	129.464115	6	6463.699922	1.000000
122	10	42	41	kitchen	sun_ahljzhgcdpomplvg.tif	6469.530586	6469.789267	6471.774492	14-May-2025 13:55:48	6330.783844	138.746742	none	NaN	NaN
122	10	43	25	kitchen	sun_acgtpgfybqjmzeyw.tif	6471.789012	6472.047484	6474.033166	14-May-2025 13:55:48	6330.783844	141.005168	5	6475.333099	1.000000
122	10	44	52	kitchen	sun_auaiucuqpdausiva.tif	6481.072225	6481.330700	6483.316516	14-May-2025 13:55:48	6330.783844	150.288381	none	NaN	NaN
122	10	45	48	kitchen	sun_akchetnepxlcxhsu.tif	6483.330425	6483.588676	6485.574208	14-May-2025 13:55:48	6330.783844	152.546581	none	NaN	NaN
122	10	46	54	kitchen	sun_auticobqsbwgoppi.tif	6485.588431	6485.847203	6487.832709	14-May-2025 13:55:48	6330.783844	154.804587	none	NaN	NaN
122	10	47	58	kitchen	sun_aymvwlarqodbwuoc.tif	6487.847051	6488.105746	6490.091408	14-May-2025 13:55:48	6330.783844	157.063208	none	NaN	NaN
122	10	48	43	kitchen	sun_ahspylgoovwmwvgk.tif	6490.105469	6490.363708	6492.350004	14-May-2025 13:55:48	6330.783844	159.321626	5	6493.256502	1.000000
122	10	49	29	kitchen	sun_admlmbcdswaszruo.tif	6499.388598	6499.647964	6501.633036	14-May-2025 13:55:48	6330.783844	168.604754	none	NaN	NaN
122	10	50	22	kitchen	sun_abpwyqmlzafvklqo.tif	6501.647179	6501.905339	6503.891159	14-May-2025 13:55:48	6330.783844	170.863336	none	NaN	NaN
122	10	51	46	kitchen	sun_ajcbwwvdlsvjyzje.tif	6503.905377	6504.163637	6506.149323	14-May-2025 13:55:48	6330.783844	173.121533	none	NaN	NaN
122	10	52	25	kitchen	sun_acgtpgfybqjmzeyw.tif	6506.163261	6506.421828	6508.407714	14-May-2025 13:55:48	6330.783844	175.379417	none	NaN	NaN
122	10	53	31	kitchen	sun_aehawpgmrlhlvcow.tif	6508.421945	6508.680340	6510.665861	14-May-2025 13:55:48	6330.783844	177.638101	none	NaN	NaN
122	10	54	36	kitchen	sun_aggjlwcdjsjcaemh.tif	6510.680253	6510.938859	6512.924130	14-May-2025 13:55:48	6330.783844	179.896409	5	6513.862316	0.000000
122	10	55	53	kitchen	sun_aunzlwrbjumxhwdj.tif	6519.956453	6520.213695	6522.200648	14-May-2025 13:55:48	6330.783844	189.172610	none	NaN	NaN
122	10	56	27	kitchen	sun_acxkpeoqbwcxfvip.tif	6522.213709	6522.471830	6524.457973	14-May-2025 13:55:48	6330.783844	191.429866	none	NaN	NaN
122	10	57	12	kitchen	labelme_kxvouciolcpqplr.tif	6524.471430	6524.730438	6526.715229	14-May-2025 13:55:48	6330.783844	193.687586	none	NaN	NaN
122	10	58	14	kitchen	sun_aadbddgrdsjugojn.tif	6526.729734	6526.991051	6528.973611	14-May-2025 13:55:48	6330.783844	195.945891	none	NaN	NaN
122	10	59	48	kitchen	sun_akchetnepxlcxhsu.tif	6528.988554	6529.246869	6531.233067	14-May-2025 13:55:48	6330.783844	198.204711	none	NaN	NaN
122	10	60	20	kitchen	sun_abdxkyyxwfskuaqb.tif	6531.246867	6531.505420	6533.490827	14-May-2025 13:55:48	6330.783844	200.463023	5	6534.472077	0.000000
122	10	61	44	kitchen	sun_ahywdevtimnqcsln.tif	6540.529956	6540.788566	6542.774235	14-May-2025 13:55:48	6330.783844	209.746112	none	NaN	NaN
122	10	62	52	kitchen	sun_auaiucuqpdausiva.tif	6542.788394	6543.046511	6545.032682	14-May-2025 13:55:48	6330.783844	212.004550	none	NaN	NaN
122	10	63	45	kitchen	sun_aixorpehvfykdynp.tif	6545.046592	6545.304931	6547.290763	14-May-2025 13:55:48	6330.783844	214.262748	none	NaN	NaN
122	10	64	47	kitchen	sun_ajkqhtgcbgpcwrwn.tif	6547.305030	6547.563361	6549.548902	14-May-2025 13:55:48	6330.783844	216.521187	5	6550.195884	1.000000
122	10	65	28	kitchen	sun_adgqasybjyktddhj.tif	6556.588288	6556.846475	6558.832793	14-May-2025 13:55:48	6330.783844	225.804444	none	NaN	NaN
122	10	66	33	kitchen	sun_aeqdocilnnpuvuhx.tif	6558.846644	6559.104606	6561.090922	14-May-2025 13:55:48	6330.783844	228.062801	5	6562.174469	0.000000
122	10	67	59	kitchen	sun_aypmqwcualkenuoe.tif	6568.129747	6568.388186	6570.373698	14-May-2025 13:55:48	6330.783844	237.345904	none	NaN	NaN
122	10	68	29	kitchen	sun_admlmbcdswaszruo.tif	6570.388106	6570.646413	6572.632464	14-May-2025 13:55:48	6330.783844	239.604262	none	NaN	NaN
122	10	69	55	kitchen	sun_avszsnwsbuqfgzbn.tif	6572.646531	6572.905320	6574.890752	14-May-2025 13:55:48	6330.783844	241.862688	none	NaN	NaN
122	10	70	35	kitchen	sun_afuyedyxivkhecmu.tif	6574.904790	6575.163272	6577.148890	14-May-2025 13:55:48	6330.783844	244.120947	6	6578.743789	0.000000
122	10	71	26	kitchen	sun_acwjdupvyjsugpay.tif	6584.188465	6584.446779	6586.432507	14-May-2025 13:55:48	6330.783844	253.404621	none	NaN	NaN
122	10	72	15	kitchen	sun_aamedkxepzlwuxes.tif	6586.446636	6586.705183	6588.690889	14-May-2025 13:55:48	6330.783844	255.662793	none	NaN	NaN
122	10	73	11	kitchen	labelme_brsyyvweiuaazfr.tif	6588.704713	6588.963273	6590.948574	14-May-2025 13:55:48	6330.783844	257.920869	none	NaN	NaN
122	10	74	40	kitchen	sun_ahdycvpopffkzzsu.tif	6590.962975	6591.221545	6593.206957	14-May-2025 13:55:48	6330.783844	260.179131	none	NaN	NaN
122	10	75	32	kitchen	sun_aenotlpyftoioydp.tif	6593.221120	6593.479916	6595.465492	14-May-2025 13:55:48	6330.783844	262.437276	none	NaN	NaN
122	10	76	58	kitchen	sun_aymvwlarqodbwuoc.tif	6595.479659	6595.738487	6597.723644	14-May-2025 13:55:48	6330.783844	264.695815	none	NaN	NaN
122	10	77	18	kitchen	sun_aaxxjlsuzvqlgylf.tif	6597.737926	6597.996393	6599.982478	14-May-2025 13:55:48	6330.783844	266.954082	none	NaN	NaN
122	10	78	51	kitchen	sun_aqeaevwwwjoqhzvl.tif	6599.996416	6600.254599	6602.240197	14-May-2025 13:55:48	6330.783844	269.212572	none	NaN	NaN
122	10	79	56	kitchen	sun_awcpdzzznmweyyhv.tif	6602.254576	6602.512789	6604.498398	14-May-2025 13:55:48	6330.783844	271.470732	none	NaN	NaN
122	10	80	42	kitchen	sun_ahpczsiumwwocjkv.tif	6604.512788	6604.771138	6606.757285	14-May-2025 13:55:48	6330.783844	273.728944	5	6608.502283	1.000000
122	10	81	60	kitchen	sun_azmutvzbxypaceni.tif	6613.796164	6614.054492	6616.040184	14-May-2025 13:55:48	6330.783844	283.012320	none	NaN	NaN
122	10	82	23	kitchen	sun_abrcnpqqhmjwekyf.tif	6616.054359	6616.312810	6618.298825	14-May-2025 13:55:48	6330.783844	285.270515	5	6619.109930	1.000000
122	10	83	49	kitchen	sun_akcjzhbbjlbogpdi.tif	6625.346072	6625.604398	6627.590117	14-May-2025 13:55:48	6330.783844	294.562228	none	NaN	NaN
122	10	84	50	kitchen	sun_amjjdeyrggfqgmom.tif	6627.604391	6627.862725	6629.848886	14-May-2025 13:55:48	6330.783844	296.820547	none	NaN	NaN
122	10	85	24	kitchen	sun_acfmftudsenhrfhy.tif	6629.863232	6630.120781	6632.107158	14-May-2025 13:55:48	6330.783844	299.079388	none	NaN	NaN
122	10	86	21	kitchen	sun_abftihopvusyfakt.tif	6632.121279	6632.379520	6634.365432	14-May-2025 13:55:48	6330.783844	301.337435	none	NaN	NaN
122	10	87	43	kitchen	sun_ahspylgoovwmwvgk.tif	6634.379376	6634.637440	6636.623304	14-May-2025 13:55:48	6330.783844	303.595532	none	NaN	NaN
122	10	88	41	kitchen	sun_ahljzhgcdpomplvg.tif	6636.637713	6636.896291	6638.882083	14-May-2025 13:55:48	6330.783844	305.853869	none	NaN	NaN
122	10	89	34	kitchen	sun_aexklacwqwezaorf.tif	6638.895630	6639.154547	6641.140129	14-May-2025 13:55:48	6330.783844	308.111786	none	NaN	NaN
122	10	90	38	kitchen	sun_agubuxuukhzyzpdp.tif	6641.154290	6641.412367	6643.398207	14-May-2025 13:55:48	6330.783844	310.370447	none	NaN	NaN
122	10	91	30	kitchen	sun_aegoxogugdkwpmpj.tif	6643.412549	6643.670599	6645.657014	14-May-2025 13:55:48	6330.783844	312.628705	none	NaN	NaN
122	10	92	13	kitchen	labelme_rykdqxenmhulbdn.tif	6645.670455	6645.929754	6647.914904	14-May-2025 13:55:48	6330.783844	314.886612	none	NaN	NaN
122	10	93	19	kitchen	sun_abdenxonkemggwsq.tif	6647.929235	6648.187837	6650.173302	14-May-2025 13:55:48	6330.783844	317.145392	none	NaN	NaN
122	10	94	39	kitchen	sun_agzzivivdpnawacl.tif	6650.187581	6650.446109	6652.431964	14-May-2025 13:55:48	6330.783844	319.403738	none	NaN	NaN
122	10	95	37	kitchen	sun_agorklincwxrdtga.tif	6652.446107	6652.704558	6654.690337	14-May-2025 13:55:48	6330.783844	321.662263	none	NaN	NaN
122	10	96	22	kitchen	sun_abpwyqmlzafvklqo.tif	6654.704373	6654.962485	6656.948206	14-May-2025 13:55:48	6330.783844	323.920529	none	NaN	NaN
122	10	97	16	kitchen	sun_aapllqyqlykszopd.tif	6656.962623	6657.221176	6659.207184	14-May-2025 13:55:48	6330.783844	326.178779	none	NaN	NaN
122	10	98	57	kitchen	sun_axyyrmzcupyhlivc.tif	6659.221193	6659.479328	6661.464972	14-May-2025 13:55:48	6330.783844	328.437349	none	NaN	NaN
122	10	99	54	kitchen	sun_auticobqsbwgoppi.tif	6661.480095	6661.737329	6663.724467	14-May-2025 13:55:48	6330.783844	330.696251	none	NaN	NaN
122	10	100	17	kitchen	sun_aarfiyshqohlwkmo.tif	6663.737419	6663.995525	6665.981298	14-May-2025 13:55:48	6330.783844	332.953575	none	NaN	NaN
