subject	run	trial	texture	category	image	trialOnset	itiOnset	trialEnd	triggerDate	triggerTimeStamp	Onsets	responseKey	responseTime	accuracy
122	8	1	16	kitchen	sun_aapllqyqlykszopd.tif	5398.687432	5398.945851	5400.931470	14-May-2025 13:40:12	5394.665629	4.021803	none	NaN	NaN
122	8	2	41	kitchen	sun_ahljzhgcdpomplvg.tif	5400.937041	5401.195286	5403.181033	14-May-2025 13:40:12	5394.665629	6.271412	none	NaN	NaN
122	8	3	54	kitchen	sun_auticobqsbwgoppi.tif	5403.186992	5403.445258	5405.430791	14-May-2025 13:40:12	5394.665629	8.521363	none	NaN	NaN
122	8	4	59	kitchen	sun_aypmqwcualkenuoe.tif	5405.436991	5405.695385	5407.681156	14-May-2025 13:40:12	5394.665629	10.771363	none	NaN	NaN
122	8	5	31	kitchen	sun_aehawpgmrlhlvcow.tif	5407.695380	5407.953632	5409.939596	14-May-2025 13:40:12	5394.665629	13.029751	none	NaN	NaN
122	8	6	51	kitchen	sun_aqeaevwwwjoqhzvl.tif	5409.953592	5410.211911	5412.197606	14-May-2025 13:40:12	5394.665629	15.287963	none	NaN	NaN
122	8	7	35	kitchen	sun_afuyedyxivkhecmu.tif	5412.203643	5412.462001	5414.447656	14-May-2025 13:40:12	5394.665629	17.538014	none	NaN	NaN
122	8	8	33	kitchen	sun_aeqdocilnnpuvuhx.tif	5414.453622	5414.711919	5416.697826	14-May-2025 13:40:12	5394.665629	19.787994	none	NaN	NaN
122	8	9	30	kitchen	sun_aegoxogugdkwpmpj.tif	5416.703603	5416.961804	5418.947526	14-May-2025 13:40:12	5394.665629	22.037974	5	5419.820515	0.000000
122	8	10	36	kitchen	sun_aggjlwcdjsjcaemh.tif	5425.978484	5426.236783	5428.222639	14-May-2025 13:40:12	5394.665629	31.312855	none	NaN	NaN
122	8	11	15	kitchen	sun_aamedkxepzlwuxes.tif	5428.228463	5428.486900	5430.472652	14-May-2025 13:40:12	5394.665629	33.562835	none	NaN	NaN
122	8	12	48	kitchen	sun_akchetnepxlcxhsu.tif	5430.478494	5430.736891	5432.722872	14-May-2025 13:40:12	5394.665629	35.812865	none	NaN	NaN
122	8	13	27	kitchen	sun_acxkpeoqbwcxfvip.tif	5432.728490	5432.987224	5434.972562	14-May-2025 13:40:12	5394.665629	38.062862	5	5435.528166	1.000000
122	8	14	46	kitchen	sun_ajcbwwvdlsvjyzje.tif	5442.003819	5442.262259	5444.248220	14-May-2025 13:40:12	5394.665629	47.338190	none	NaN	NaN
122	8	15	34	kitchen	sun_aexklacwqwezaorf.tif	5444.253331	5444.511768	5446.497095	14-May-2025 13:40:12	5394.665629	49.587703	none	NaN	NaN
122	8	16	29	kitchen	sun_admlmbcdswaszruo.tif	5446.503373	5446.762175	5448.748035	14-May-2025 13:40:12	5394.665629	51.837744	none	NaN	NaN
122	8	17	39	kitchen	sun_agzzivivdpnawacl.tif	5448.762155	5449.020072	5451.006147	14-May-2025 13:40:12	5394.665629	54.096526	none	NaN	NaN
122	8	18	42	kitchen	sun_ahpczsiumwwocjkv.tif	5451.011673	5451.270521	5453.256202	14-May-2025 13:40:12	5394.665629	56.346044	none	NaN	NaN
122	8	19	43	kitchen	sun_ahspylgoovwmwvgk.tif	5453.261988	5453.520009	5455.505908	14-May-2025 13:40:12	5394.665629	58.596359	none	NaN	NaN
122	8	20	37	kitchen	sun_agorklincwxrdtga.tif	5455.511641	5455.770477	5457.755618	14-May-2025 13:40:12	5394.665629	60.846012	5	5458.757003	0.000000
122	8	21	18	kitchen	sun_aaxxjlsuzvqlgylf.tif	5464.778213	5465.036597	5467.022733	14-May-2025 13:40:12	5394.665629	70.112584	none	NaN	NaN
122	8	22	26	kitchen	sun_acwjdupvyjsugpay.tif	5467.028191	5467.286576	5469.272147	14-May-2025 13:40:12	5394.665629	72.362562	none	NaN	NaN
122	8	23	17	kitchen	sun_aarfiyshqohlwkmo.tif	5469.278200	5469.536557	5471.522793	14-May-2025 13:40:12	5394.665629	74.612571	5	5472.358301	1.000000
122	8	24	47	kitchen	sun_ajkqhtgcbgpcwrwn.tif	5478.553142	5478.811474	5480.797140	14-May-2025 13:40:12	5394.665629	83.887513	none	NaN	NaN
122	8	25	60	kitchen	sun_azmutvzbxypaceni.tif	5480.803113	5481.061456	5483.047166	14-May-2025 13:40:12	5394.665629	86.137485	none	NaN	NaN
122	8	26	55	kitchen	sun_avszsnwsbuqfgzbn.tif	5483.053072	5483.311443	5485.297135	14-May-2025 13:40:12	5394.665629	88.387444	none	NaN	NaN
122	8	27	20	kitchen	sun_abdxkyyxwfskuaqb.tif	5492.328644	5492.586380	5494.572446	14-May-2025 13:40:12	5394.665629	97.663015	none	NaN	NaN
122	8	28	19	kitchen	sun_abdenxonkemggwsq.tif	5494.577962	5494.836828	5496.821774	14-May-2025 13:40:12	5394.665629	99.912333	none	NaN	NaN
122	8	29	14	kitchen	sun_aadbddgrdsjugojn.tif	5496.827998	5497.086724	5499.072619	14-May-2025 13:40:12	5394.665629	102.162369	none	NaN	NaN
122	8	30	22	kitchen	sun_abpwyqmlzafvklqo.tif	5499.078384	5499.336790	5501.322929	14-May-2025 13:40:12	5394.665629	104.412755	5	5502.022689	0.000000
122	8	31	21	kitchen	sun_abftihopvusyfakt.tif	5508.352886	5508.611724	5510.596862	14-May-2025 13:40:12	5394.665629	113.687257	none	NaN	NaN
122	8	32	58	kitchen	sun_aymvwlarqodbwuoc.tif	5510.602863	5510.861284	5512.846712	14-May-2025 13:40:12	5394.665629	115.937234	none	NaN	NaN
122	8	33	52	kitchen	sun_auaiucuqpdausiva.tif	5512.853317	5513.111679	5515.097134	14-May-2025 13:40:12	5394.665629	118.187688	none	NaN	NaN
122	8	34	25	kitchen	sun_acgtpgfybqjmzeyw.tif	5515.103182	5515.361673	5517.347528	14-May-2025 13:40:12	5394.665629	120.437553	none	NaN	NaN
122	8	35	50	kitchen	sun_amjjdeyrggfqgmom.tif	5517.352825	5517.611664	5519.597113	14-May-2025 13:40:12	5394.665629	122.687196	none	NaN	NaN
122	8	36	24	kitchen	sun_acfmftudsenhrfhy.tif	5519.603150	5519.861163	5521.847334	14-May-2025 13:40:12	5394.665629	124.937522	none	NaN	NaN
122	8	37	23	kitchen	sun_abrcnpqqhmjwekyf.tif	5521.852762	5522.111128	5524.096974	14-May-2025 13:40:12	5394.665629	127.187134	none	NaN	NaN
122	8	38	44	kitchen	sun_ahywdevtimnqcsln.tif	5524.111108	5524.369450	5526.355328	14-May-2025 13:40:12	5394.665629	129.445479	5	5527.094376	0.000000
122	8	39	56	kitchen	sun_awcpdzzznmweyyhv.tif	5533.386036	5533.644368	5535.629837	14-May-2025 13:40:12	5394.665629	138.720407	5	5538.657854	1.000000
122	8	40	53	kitchen	sun_aunzlwrbjumxhwdj.tif	5542.660960	5542.919298	5544.904893	14-May-2025 13:40:12	5394.665629	147.995331	none	NaN	NaN
122	8	41	49	kitchen	sun_akcjzhbbjlbogpdi.tif	5544.910909	5545.169279	5547.154740	14-May-2025 13:40:12	5394.665629	150.245280	none	NaN	NaN
122	8	42	13	kitchen	labelme_rykdqxenmhulbdn.tif	5547.160897	5547.419257	5549.405208	14-May-2025 13:40:12	5394.665629	152.495268	none	NaN	NaN
122	8	43	11	kitchen	labelme_brsyyvweiuaazfr.tif	5549.410862	5549.669243	5551.655365	14-May-2025 13:40:12	5394.665629	154.745233	5	5552.377703	0.000000
122	8	44	38	kitchen	sun_agubuxuukhzyzpdp.tif	5558.677457	5558.936315	5560.921286	14-May-2025 13:40:12	5394.665629	164.011828	none	NaN	NaN
122	8	45	45	kitchen	sun_aixorpehvfykdynp.tif	5560.927873	5561.185904	5563.172012	14-May-2025 13:40:12	5394.665629	166.262244	none	NaN	NaN
122	8	46	12	kitchen	labelme_kxvouciolcpqplr.tif	5563.185756	5563.444600	5565.429847	14-May-2025 13:40:12	5394.665629	168.520128	none	NaN	NaN
122	8	47	28	kitchen	sun_adgqasybjyktddhj.tif	5565.436144	5565.694573	5567.680560	14-May-2025 13:40:12	5394.665629	170.770515	none	NaN	NaN
122	8	48	32	kitchen	sun_aenotlpyftoioydp.tif	5567.685762	5567.944572	5569.930329	14-May-2025 13:40:12	5394.665629	173.020133	none	NaN	NaN
122	8	49	40	kitchen	sun_ahdycvpopffkzzsu.tif	5569.936087	5570.194083	5572.180156	14-May-2025 13:40:12	5394.665629	175.270458	5	5573.505492	0.000000
122	8	50	57	kitchen	sun_axyyrmzcupyhlivc.tif	5579.210579	5579.468929	5581.455132	14-May-2025 13:40:12	5394.665629	184.544950	none	NaN	NaN
122	8	51	59	kitchen	sun_aypmqwcualkenuoe.tif	5581.460644	5581.718986	5583.704985	14-May-2025 13:40:12	5394.665629	186.795016	none	NaN	NaN
122	8	52	25	kitchen	sun_acgtpgfybqjmzeyw.tif	5583.710581	5583.968967	5585.954670	14-May-2025 13:40:12	5394.665629	189.044952	none	NaN	NaN
122	8	53	26	kitchen	sun_acwjdupvyjsugpay.tif	5585.960633	5586.218953	5588.204825	14-May-2025 13:40:12	5394.665629	191.295004	none	NaN	NaN
122	8	54	16	kitchen	sun_aapllqyqlykszopd.tif	5588.210564	5588.468921	5590.454705	14-May-2025 13:40:12	5394.665629	193.544935	none	NaN	NaN
122	8	55	57	kitchen	sun_axyyrmzcupyhlivc.tif	5590.460559	5590.718912	5592.704371	14-May-2025 13:40:12	5394.665629	195.794931	none	NaN	NaN
122	8	56	14	kitchen	sun_aadbddgrdsjugojn.tif	5592.710537	5592.968892	5594.954934	14-May-2025 13:40:12	5394.665629	198.044908	none	NaN	NaN
122	8	57	51	kitchen	sun_aqeaevwwwjoqhzvl.tif	5594.968846	5595.227203	5597.213305	14-May-2025 13:40:12	5394.665629	200.303217	none	NaN	NaN
122	8	58	29	kitchen	sun_admlmbcdswaszruo.tif	5597.227187	5597.485519	5599.471133	14-May-2025 13:40:12	5394.665629	202.561558	none	NaN	NaN
122	8	59	11	kitchen	labelme_brsyyvweiuaazfr.tif	5599.477169	5599.735500	5601.721245	14-May-2025 13:40:12	5394.665629	204.811540	5	5604.023556	1.000000
122	8	60	42	kitchen	sun_ahpczsiumwwocjkv.tif	5608.752081	5609.010417	5610.996066	14-May-2025 13:40:12	5394.665629	214.086452	none	NaN	NaN
122	8	61	13	kitchen	labelme_rykdqxenmhulbdn.tif	5611.002513	5611.260999	5613.247783	14-May-2025 13:40:12	5394.665629	216.336884	none	NaN	NaN
122	8	62	43	kitchen	sun_ahspylgoovwmwvgk.tif	5613.260827	5613.519214	5615.505459	14-May-2025 13:40:12	5394.665629	218.595198	6	5616.778167	1.000000
122	8	63	56	kitchen	sun_awcpdzzznmweyyhv.tif	5622.543567	5622.802000	5624.787876	14-May-2025 13:40:12	5394.665629	227.877939	none	NaN	NaN
122	8	64	33	kitchen	sun_aeqdocilnnpuvuhx.tif	5624.793936	5625.051964	5627.037862	14-May-2025 13:40:12	5394.665629	230.128307	none	NaN	NaN
122	8	65	20	kitchen	sun_abdxkyyxwfskuaqb.tif	5627.043550	5627.302428	5629.287484	14-May-2025 13:40:12	5394.665629	232.377921	5	5630.525353	1.000000
122	8	66	34	kitchen	sun_aexklacwqwezaorf.tif	5636.310688	5636.569015	5638.554626	14-May-2025 13:40:12	5394.665629	241.645060	none	NaN	NaN
122	8	67	28	kitchen	sun_adgqasybjyktddhj.tif	5638.560551	5638.818894	5640.805092	14-May-2025 13:40:12	5394.665629	243.894922	none	NaN	NaN
122	8	68	27	kitchen	sun_acxkpeoqbwcxfvip.tif	5640.810103	5641.068501	5643.054461	14-May-2025 13:40:12	5394.665629	246.144474	none	NaN	NaN
122	8	69	24	kitchen	sun_acfmftudsenhrfhy.tif	5643.060095	5643.318488	5645.304493	14-May-2025 13:40:12	5394.665629	248.394466	none	NaN	NaN
122	8	70	44	kitchen	sun_ahywdevtimnqcsln.tif	5645.310100	5645.568466	5647.554421	14-May-2025 13:40:12	5394.665629	250.644471	none	NaN	NaN
122	8	71	45	kitchen	sun_aixorpehvfykdynp.tif	5647.560060	5647.818447	5649.804389	14-May-2025 13:40:12	5394.665629	252.894432	none	NaN	NaN
122	8	72	23	kitchen	sun_abrcnpqqhmjwekyf.tif	5649.810072	5650.068430	5652.054525	14-May-2025 13:40:12	5394.665629	255.144443	none	NaN	NaN
122	8	73	38	kitchen	sun_agubuxuukhzyzpdp.tif	5652.060079	5652.318408	5654.304643	14-May-2025 13:40:12	5394.665629	257.394450	none	NaN	NaN
122	8	74	48	kitchen	sun_akchetnepxlcxhsu.tif	5654.310038	5654.568390	5656.554047	14-May-2025 13:40:12	5394.665629	259.644409	none	NaN	NaN
122	8	75	30	kitchen	sun_aegoxogugdkwpmpj.tif	5656.568382	5656.826697	5658.812757	14-May-2025 13:40:12	5394.665629	261.902753	none	NaN	NaN
122	8	76	15	kitchen	sun_aamedkxepzlwuxes.tif	5658.826684	5659.085020	5661.070629	14-May-2025 13:40:12	5394.665629	264.161055	none	NaN	NaN
122	8	77	53	kitchen	sun_aunzlwrbjumxhwdj.tif	5661.076671	5661.335005	5663.320717	14-May-2025 13:40:12	5394.665629	266.411042	5	5664.151182	0.000000
122	8	78	36	kitchen	sun_aggjlwcdjsjcaemh.tif	5670.351539	5670.610312	5672.595660	14-May-2025 13:40:12	5394.665629	275.685910	none	NaN	NaN
122	8	79	21	kitchen	sun_abftihopvusyfakt.tif	5672.601937	5672.860293	5674.845914	14-May-2025 13:40:12	5394.665629	277.936309	none	NaN	NaN
122	8	80	31	kitchen	sun_aehawpgmrlhlvcow.tif	5674.851842	5675.110263	5677.095825	14-May-2025 13:40:12	5394.665629	280.186214	none	NaN	NaN
122	8	81	46	kitchen	sun_ajcbwwvdlsvjyzje.tif	5677.101922	5677.360252	5679.345874	14-May-2025 13:40:12	5394.665629	282.436293	none	NaN	NaN
122	8	82	52	kitchen	sun_auaiucuqpdausiva.tif	5679.360241	5679.618198	5681.604063	14-May-2025 13:40:12	5394.665629	284.694612	none	NaN	NaN
122	8	83	12	kitchen	labelme_kxvouciolcpqplr.tif	5681.609838	5681.868174	5683.854232	14-May-2025 13:40:12	5394.665629	286.944209	none	NaN	NaN
122	8	84	58	kitchen	sun_aymvwlarqodbwuoc.tif	5683.859740	5684.118550	5686.103823	14-May-2025 13:40:12	5394.665629	289.194111	none	NaN	NaN
122	8	85	22	kitchen	sun_abpwyqmlzafvklqo.tif	5686.118127	5686.376404	5688.362506	14-May-2025 13:40:12	5394.665629	291.452498	none	NaN	NaN
122	8	86	37	kitchen	sun_agorklincwxrdtga.tif	5688.368496	5688.626831	5690.612634	14-May-2025 13:40:12	5394.665629	293.702868	5	5691.661862	1.000000
122	8	87	40	kitchen	sun_ahdycvpopffkzzsu.tif	5697.643407	5697.901383	5699.887972	14-May-2025 13:40:12	5394.665629	302.977778	none	NaN	NaN
122	8	88	32	kitchen	sun_aenotlpyftoioydp.tif	5699.901748	5700.159700	5702.146134	14-May-2025 13:40:12	5394.665629	305.236119	none	NaN	NaN
122	8	89	50	kitchen	sun_amjjdeyrggfqgmom.tif	5702.151193	5702.409670	5704.395378	14-May-2025 13:40:12	5394.665629	307.485564	none	NaN	NaN
122	8	90	17	kitchen	sun_aarfiyshqohlwkmo.tif	5704.401312	5704.659647	5706.645331	14-May-2025 13:40:12	5394.665629	309.735683	none	NaN	NaN
122	8	91	54	kitchen	sun_auticobqsbwgoppi.tif	5706.651277	5706.909629	5708.895183	14-May-2025 13:40:12	5394.665629	311.985648	none	NaN	NaN
122	8	92	60	kitchen	sun_azmutvzbxypaceni.tif	5708.901258	5709.159633	5711.145708	14-May-2025 13:40:12	5394.665629	314.235629	none	NaN	NaN
122	8	93	55	kitchen	sun_avszsnwsbuqfgzbn.tif	5711.151205	5711.409596	5713.395226	14-May-2025 13:40:12	5394.665629	316.485576	none	NaN	NaN
122	8	94	47	kitchen	sun_ajkqhtgcbgpcwrwn.tif	5713.409542	5713.667915	5715.654170	14-May-2025 13:40:12	5394.665629	318.743913	none	NaN	NaN
122	8	95	35	kitchen	sun_afuyedyxivkhecmu.tif	5715.667898	5715.926232	5717.911694	14-May-2025 13:40:12	5394.665629	321.002269	none	NaN	NaN
122	8	96	39	kitchen	sun_agzzivivdpnawacl.tif	5717.917905	5718.176207	5720.161948	14-May-2025 13:40:12	5394.665629	323.252276	none	NaN	NaN
122	8	97	41	kitchen	sun_ahljzhgcdpomplvg.tif	5720.167813	5720.426177	5722.411588	14-May-2025 13:40:12	5394.665629	325.502185	none	NaN	NaN
122	8	98	49	kitchen	sun_akcjzhbbjlbogpdi.tif	5722.417850	5722.676188	5724.662172	14-May-2025 13:40:12	5394.665629	327.752221	none	NaN	NaN
122	8	99	18	kitchen	sun_aaxxjlsuzvqlgylf.tif	5724.667824	5724.926143	5726.911848	14-May-2025 13:40:12	5394.665629	330.002195	none	NaN	NaN
122	8	100	19	kitchen	sun_abdenxonkemggwsq.tif	5726.926155	5727.184479	5729.170081	14-May-2025 13:40:12	5394.665629	332.260527	none	NaN	NaN
