subject	run	trial	texture	category	image	trialOnset	itiOnset	trialEnd	triggerDate	triggerTimeStamp	Onsets	responseKey	responseTime	accuracy
128	11	1	17	bathroom	sun_acegryoqftbzowsg.tif	28618.850764	28619.108615	28621.094936	16-Jun-2025 15:23:13	28614.824355	4.026409	none	NaN	NaN
128	11	2	12	bathroom	sun_aapitsgbtktqubfy.tif	28621.108585	28621.366926	28623.352679	16-Jun-2025 15:23:13	28614.824355	6.284229	none	NaN	NaN
128	11	3	27	bathroom	sun_ahcvzmoyaycdoftf.tif	28623.366906	28623.625236	28625.611474	16-Jun-2025 15:23:13	28614.824355	8.542551	none	NaN	NaN
128	11	4	39	bathroom	sun_anryaplzeujmzfkd.tif	28625.616900	28625.875210	28627.860903	16-Jun-2025 15:23:13	28614.824355	10.792545	none	NaN	NaN
128	11	5	51	bathroom	sun_atstyziqcmkahyxk.tif	28627.875207	28628.133534	28630.119723	16-Jun-2025 15:23:13	28614.824355	13.050851	none	NaN	NaN
128	11	6	53	bathroom	sun_ausgutylgojavyoq.tif	28630.125133	28630.383515	28632.369215	16-Jun-2025 15:23:13	28614.824355	15.300778	none	NaN	NaN
128	11	7	55	bathroom	sun_avhrdrntsqrjzccq.tif	28632.375161	28632.633497	28634.619177	16-Jun-2025 15:23:13	28614.824355	17.550806	none	NaN	NaN
128	11	8	36	bathroom	sun_ambriybtogmepttm.tif	28634.625116	28634.883485	28636.869445	16-Jun-2025 15:23:13	28614.824355	19.800760	none	NaN	NaN
128	11	9	22	bathroom	sun_agguqiubmwhqqunb.tif	28636.875131	28637.133473	28639.119651	16-Jun-2025 15:23:13	28614.824355	22.050775	none	NaN	NaN
128	11	10	35	bathroom	sun_alotolagknyrgtsk.tif	28639.125090	28639.383463	28641.369523	16-Jun-2025 15:23:13	28614.824355	24.300735	5	28643.021583	0.000000
128	11	11	28	bathroom	sun_ahijqszoswveeyji.tif	28648.400045	28648.658371	28650.644101	16-Jun-2025 15:23:13	28614.824355	33.575690	5	28651.494358	1.000000
128	11	12	30	bathroom	sun_ajlawzvmubibwbpy.tif	28657.674960	28657.933302	28659.919224	16-Jun-2025 15:23:13	28614.824355	42.850605	none	NaN	NaN
128	11	13	25	bathroom	sun_agyqfjcfkdcydepw.tif	28659.924938	28660.183772	28662.169486	16-Jun-2025 15:23:13	28614.824355	45.100583	none	NaN	NaN
128	11	14	11	bathroom	labelme_sfxiulhjbhlyiyt.tif	28662.174867	28662.433746	28664.418985	16-Jun-2025 15:23:13	28614.824355	47.350512	none	NaN	NaN
128	11	15	49	bathroom	sun_asfwthctfqerjvxr.tif	28664.424923	28664.683254	28666.669511	16-Jun-2025 15:23:13	28614.824355	49.600568	none	NaN	NaN
128	11	16	56	bathroom	sun_awnqiikzaispgmwo.tif	28666.674845	28666.933824	28668.919290	16-Jun-2025 15:23:13	28614.824355	51.850490	5	28669.684331	1.000000
128	11	17	29	bathroom	sun_ahqjwnzgolcaoidx.tif	28675.950318	28676.208740	28678.194403	16-Jun-2025 15:23:13	28614.824355	61.125963	none	NaN	NaN
128	11	18	34	bathroom	sun_alkosphxlxwjwgjd.tif	28678.200110	28678.458615	28680.444491	16-Jun-2025 15:23:13	28614.824355	63.375755	none	NaN	NaN
128	11	19	54	bathroom	sun_auzqhkafidnkrwmo.tif	28680.458121	28680.716455	28682.702012	16-Jun-2025 15:23:13	28614.824355	65.633766	none	NaN	NaN
128	11	20	48	bathroom	sun_aqrpegblszgcoujh.tif	28682.708069	28682.966438	28684.952086	16-Jun-2025 15:23:13	28614.824355	67.883714	none	NaN	NaN
128	11	21	33	bathroom	sun_aljolscmmzydegqp.tif	28684.958084	28685.216427	28687.201954	16-Jun-2025 15:23:13	28614.824355	70.133729	none	NaN	NaN
128	11	22	52	bathroom	sun_aunuadmjocsddsrl.tif	28687.208044	28687.466414	28689.452627	16-Jun-2025 15:23:13	28614.824355	72.383689	none	NaN	NaN
128	11	23	41	bathroom	sun_aoybiabnpadelefl.tif	28689.458053	28689.716766	28691.701903	16-Jun-2025 15:23:13	28614.824355	74.633698	none	NaN	NaN
128	11	24	15	bathroom	sun_abjtwfukuwddzted.tif	28691.708017	28691.966368	28693.951813	16-Jun-2025 15:23:13	28614.824355	76.883662	none	NaN	NaN
128	11	25	13	bathroom	sun_aavhrsfjbserjtht.tif	28693.958005	28694.216348	28696.202358	16-Jun-2025 15:23:13	28614.824355	79.133650	none	NaN	NaN
128	11	26	40	bathroom	sun_aofnryafpsjimzsb.tif	28696.208010	28696.466303	28698.452568	16-Jun-2025 15:23:13	28614.824355	81.383655	none	NaN	NaN
128	11	27	16	bathroom	sun_acduarbnmmoglmiv.tif	28698.457971	28698.716310	28700.702343	16-Jun-2025 15:23:13	28614.824355	83.633616	6	28701.843995	1.000000
128	11	28	18	bathroom	sun_acgyywnybuveqsro.tif	28707.732908	28707.991238	28709.977188	16-Jun-2025 15:23:13	28614.824355	92.908553	none	NaN	NaN
128	11	29	45	bathroom	sun_apkxzenqapsujocq.tif	28709.982899	28710.241607	28712.226885	16-Jun-2025 15:23:13	28614.824355	95.158544	5	28712.927425	0.000000
128	11	30	60	bathroom	sun_azqyogdvyhahyram.tif	28719.241159	28719.499494	28721.485734	16-Jun-2025 15:23:13	28614.824355	104.416804	none	NaN	NaN
128	11	31	38	bathroom	sun_anhioqovhscjqqwb.tif	28721.491476	28721.749476	28723.735247	16-Jun-2025 15:23:13	28614.824355	106.667121	none	NaN	NaN
128	11	32	44	bathroom	sun_apkruvsevgegsdwp.tif	28723.741064	28723.999827	28725.985478	16-Jun-2025 15:23:13	28614.824355	108.916709	none	NaN	NaN
128	11	33	26	bathroom	sun_ahaulkltgpkeeemi.tif	28725.991426	28726.249442	28728.235844	16-Jun-2025 15:23:13	28614.824355	111.167071	5	28728.900593	1.000000
128	11	34	37	bathroom	sun_amzlamotzwfkwjco.tif	28735.257612	28735.516407	28737.502109	16-Jun-2025 15:23:13	28614.824355	120.433257	none	NaN	NaN
128	11	35	43	bathroom	sun_apjevzvycyhuqghb.tif	28737.508047	28737.766387	28739.752415	16-Jun-2025 15:23:13	28614.824355	122.683692	none	NaN	NaN
128	11	36	14	bathroom	sun_abapwbhyhkfixyex.tif	28739.757611	28740.016368	28742.002125	16-Jun-2025 15:23:13	28614.824355	124.933256	none	NaN	NaN
128	11	37	21	bathroom	sun_aggnnqpdorgxpvce.tif	28742.007629	28742.265982	28744.251424	16-Jun-2025 15:23:13	28614.824355	127.183273	none	NaN	NaN
128	11	38	31	bathroom	sun_akiytfaagpdsphgz.tif	28744.257623	28744.515955	28746.501615	16-Jun-2025 15:23:13	28614.824355	129.433268	none	NaN	NaN
128	11	39	57	bathroom	sun_axldvoqbuvuggfmq.tif	28746.507583	28746.765946	28748.751760	16-Jun-2025 15:23:13	28614.824355	131.683227	none	NaN	NaN
128	11	40	59	bathroom	sun_axyrejkiiaqiurjk.tif	28748.765917	28749.024245	28751.010300	16-Jun-2025 15:23:13	28614.824355	133.941561	none	NaN	NaN
128	11	41	50	bathroom	sun_aspsyogrekjtfozg.tif	28751.015907	28751.274237	28753.260035	16-Jun-2025 15:23:13	28614.824355	136.191551	none	NaN	NaN
128	11	42	32	bathroom	sun_aleqenyvunhactkl.tif	28753.265858	28753.524207	28755.509810	16-Jun-2025 15:23:13	28614.824355	138.441503	none	NaN	NaN
128	11	43	42	bathroom	sun_apeeialkgkuxddgh.tif	28755.524190	28755.782525	28757.768287	16-Jun-2025 15:23:13	28614.824355	140.699835	5	28758.481308	1.000000
128	11	44	20	bathroom	sun_afcoljnjfoxjtgja.tif	28764.799109	28765.057464	28767.043402	16-Jun-2025 15:23:13	28614.824355	149.974753	none	NaN	NaN
128	11	45	24	bathroom	sun_agrwbmhcpmfuwmsg.tif	28767.049459	28767.307432	28769.293246	16-Jun-2025 15:23:13	28614.824355	152.225104	5	28770.015874	0.000000
128	11	46	23	bathroom	sun_aghyqhbptboemmoq.tif	28776.324025	28776.582370	28778.567977	16-Jun-2025 15:23:13	28614.824355	161.499670	5	28779.334815	0.000000
128	11	47	58	bathroom	sun_axxbkopsgyouuebh.tif	28785.590630	28785.849333	28787.834497	16-Jun-2025 15:23:13	28614.824355	170.766275	none	NaN	NaN
128	11	48	19	bathroom	sun_aclfzgynxzxlbepz.tif	28787.840958	28788.099332	28790.085709	16-Jun-2025 15:23:13	28614.824355	173.016603	none	NaN	NaN
128	11	49	46	bathroom	sun_apmqjbnwghzuhhzh.tif	28790.090526	28790.349301	28792.335066	16-Jun-2025 15:23:13	28614.824355	175.266171	none	NaN	NaN
128	11	50	47	bathroom	sun_apynckhmoftszqoq.tif	28792.340903	28792.600055	28794.585087	16-Jun-2025 15:23:13	28614.824355	177.516547	none	NaN	NaN
128	11	51	39	bathroom	sun_anryaplzeujmzfkd.tif	28794.590512	28794.849277	28796.834338	16-Jun-2025 15:23:13	28614.824355	179.766157	none	NaN	NaN
128	11	52	17	bathroom	sun_acegryoqftbzowsg.tif	28796.840823	28797.098873	28799.084758	16-Jun-2025 15:23:13	28614.824355	182.016468	none	NaN	NaN
128	11	53	16	bathroom	sun_acduarbnmmoglmiv.tif	28799.090841	28799.348860	28801.335173	16-Jun-2025 15:23:13	28614.824355	184.266486	5	28802.611265	0.000000
128	11	54	38	bathroom	sun_anhioqovhscjqqwb.tif	28808.365419	28808.623771	28810.609590	16-Jun-2025 15:23:13	28614.824355	193.541064	5	28811.954595	1.000000
128	11	55	13	bathroom	sun_aavhrsfjbserjtht.tif	28817.632045	28817.890378	28819.875975	16-Jun-2025 15:23:13	28614.824355	202.807690	none	NaN	NaN
128	11	56	46	bathroom	sun_apmqjbnwghzuhhzh.tif	28819.890354	28820.148700	28822.134458	16-Jun-2025 15:23:13	28614.824355	205.065999	none	NaN	NaN
128	11	57	53	bathroom	sun_ausgutylgojavyoq.tif	28822.140294	28822.398666	28824.384270	16-Jun-2025 15:23:13	28614.824355	207.315939	none	NaN	NaN
128	11	58	19	bathroom	sun_aclfzgynxzxlbepz.tif	28824.390296	28824.648650	28826.634395	16-Jun-2025 15:23:13	28614.824355	209.565941	none	NaN	NaN
128	11	59	57	bathroom	sun_axldvoqbuvuggfmq.tif	28826.640285	28826.898635	28828.884874	16-Jun-2025 15:23:13	28614.824355	211.815930	none	NaN	NaN
128	11	60	31	bathroom	sun_akiytfaagpdsphgz.tif	28828.890295	28829.148633	28831.134571	16-Jun-2025 15:23:13	28614.824355	214.065939	none	NaN	NaN
128	11	61	55	bathroom	sun_avhrdrntsqrjzccq.tif	28831.140602	28831.399073	28833.385033	16-Jun-2025 15:23:13	28614.824355	216.316247	none	NaN	NaN
128	11	62	34	bathroom	sun_alkosphxlxwjwgjd.tif	28833.398965	28833.657340	28835.643159	16-Jun-2025 15:23:13	28614.824355	218.574609	6	28836.991882	1.000000
128	11	63	24	bathroom	sun_agrwbmhcpmfuwmsg.tif	28842.674001	28842.931848	28844.918010	16-Jun-2025 15:23:13	28614.824355	227.849646	none	NaN	NaN
128	11	64	12	bathroom	sun_aapitsgbtktqubfy.tif	28844.923940	28845.181835	28847.168409	16-Jun-2025 15:23:13	28614.824355	230.099585	none	NaN	NaN
128	11	65	36	bathroom	sun_ambriybtogmepttm.tif	28847.173428	28847.432286	28849.417425	16-Jun-2025 15:23:13	28614.824355	232.349072	none	NaN	NaN
128	11	66	45	bathroom	sun_apkxzenqapsujocq.tif	28849.423840	28849.682361	28851.667800	16-Jun-2025 15:23:13	28614.824355	234.599485	none	NaN	NaN
128	11	67	23	bathroom	sun_aghyqhbptboemmoq.tif	28851.673389	28851.931773	28853.917793	16-Jun-2025 15:23:13	28614.824355	236.849034	none	NaN	NaN
128	11	68	44	bathroom	sun_apkruvsevgegsdwp.tif	28853.931763	28854.190033	28856.175670	16-Jun-2025 15:23:13	28614.824355	239.107408	none	NaN	NaN
128	11	69	14	bathroom	sun_abapwbhyhkfixyex.tif	28856.182222	28856.440539	28858.426379	16-Jun-2025 15:23:13	28614.824355	241.357867	none	NaN	NaN
128	11	70	56	bathroom	sun_awnqiikzaispgmwo.tif	28858.431639	28858.690005	28860.675676	16-Jun-2025 15:23:13	28614.824355	243.607284	none	NaN	NaN
128	11	71	41	bathroom	sun_aoybiabnpadelefl.tif	28860.690028	28860.948381	28862.933929	16-Jun-2025 15:23:13	28614.824355	245.865673	none	NaN	NaN
128	11	72	37	bathroom	sun_amzlamotzwfkwjco.tif	28862.940017	28863.198330	28865.183801	16-Jun-2025 15:23:13	28614.824355	248.115662	5	28866.192350	1.000000
128	11	73	58	bathroom	sun_axxbkopsgyouuebh.tif	28872.206528	28872.464938	28874.451117	16-Jun-2025 15:23:13	28614.824355	257.382173	none	NaN	NaN
128	11	74	60	bathroom	sun_azqyogdvyhahyram.tif	28874.464928	28874.723256	28876.708723	16-Jun-2025 15:23:13	28614.824355	259.640573	none	NaN	NaN
128	11	75	35	bathroom	sun_alotolagknyrgtsk.tif	28876.714902	28876.973232	28878.958800	16-Jun-2025 15:23:13	28614.824355	261.890547	none	NaN	NaN
128	11	76	11	bathroom	labelme_sfxiulhjbhlyiyt.tif	28878.964894	28879.223214	28881.209149	16-Jun-2025 15:23:13	28614.824355	264.140538	none	NaN	NaN
128	11	77	42	bathroom	sun_apeeialkgkuxddgh.tif	28881.223203	28881.481535	28883.467778	16-Jun-2025 15:23:13	28614.824355	266.398848	none	NaN	NaN
128	11	78	29	bathroom	sun_ahqjwnzgolcaoidx.tif	28883.481526	28883.739847	28885.725492	16-Jun-2025 15:23:13	28614.824355	268.657171	6	28887.137919	1.000000
128	11	79	51	bathroom	sun_atstyziqcmkahyxk.tif	28892.756448	28893.015258	28895.000321	16-Jun-2025 15:23:13	28614.824355	277.932093	none	NaN	NaN
128	11	80	27	bathroom	sun_ahcvzmoyaycdoftf.tif	28895.006401	28895.265245	28897.250490	16-Jun-2025 15:23:13	28614.824355	280.182046	none	NaN	NaN
128	11	81	59	bathroom	sun_axyrejkiiaqiurjk.tif	28897.256802	28897.515217	28899.500590	16-Jun-2025 15:23:13	28614.824355	282.432447	none	NaN	NaN
128	11	82	52	bathroom	sun_aunuadmjocsddsrl.tif	28899.506818	28899.765162	28901.751422	16-Jun-2025 15:23:13	28614.824355	284.682463	none	NaN	NaN
128	11	83	20	bathroom	sun_afcoljnjfoxjtgja.tif	28901.765099	28902.023552	28904.009314	16-Jun-2025 15:23:13	28614.824355	286.940744	none	NaN	NaN
128	11	84	15	bathroom	sun_abjtwfukuwddzted.tif	28904.014646	28904.273029	28906.258706	16-Jun-2025 15:23:13	28614.824355	289.190291	none	NaN	NaN
128	11	85	49	bathroom	sun_asfwthctfqerjvxr.tif	28906.265136	28906.523385	28908.509176	16-Jun-2025 15:23:13	28614.824355	291.440780	none	NaN	NaN
128	11	86	21	bathroom	sun_aggnnqpdorgxpvce.tif	28908.515080	28908.773368	28910.759130	16-Jun-2025 15:23:13	28614.824355	293.690725	none	NaN	NaN
128	11	87	32	bathroom	sun_aleqenyvunhactkl.tif	28910.772976	28911.031830	28913.016856	16-Jun-2025 15:23:13	28614.824355	295.948621	none	NaN	NaN
128	11	88	43	bathroom	sun_apjevzvycyhuqghb.tif	28913.023421	28913.281748	28915.267907	16-Jun-2025 15:23:13	28614.824355	298.199065	none	NaN	NaN
128	11	89	40	bathroom	sun_aofnryafpsjimzsb.tif	28915.272860	28915.531710	28917.517305	16-Jun-2025 15:23:13	28614.824355	300.448505	none	NaN	NaN
128	11	90	26	bathroom	sun_ahaulkltgpkeeemi.tif	28917.523239	28917.781647	28919.767438	16-Jun-2025 15:23:13	28614.824355	302.698883	none	NaN	NaN
128	11	91	54	bathroom	sun_auzqhkafidnkrwmo.tif	28919.773283	28920.031714	28922.017208	16-Jun-2025 15:23:13	28614.824355	304.948928	none	NaN	NaN
128	11	92	18	bathroom	sun_acgyywnybuveqsro.tif	28922.022875	28922.281213	28924.266805	16-Jun-2025 15:23:13	28614.824355	307.198520	none	NaN	NaN
128	11	93	47	bathroom	sun_apynckhmoftszqoq.tif	28924.272854	28924.531197	28926.517199	16-Jun-2025 15:23:13	28614.824355	309.448499	none	NaN	NaN
128	11	94	25	bathroom	sun_agyqfjcfkdcydepw.tif	28926.522805	28926.781183	28928.767193	16-Jun-2025 15:23:13	28614.824355	311.698450	none	NaN	NaN
128	11	95	28	bathroom	sun_ahijqszoswveeyji.tif	28928.772801	28929.031160	28931.016973	16-Jun-2025 15:23:13	28614.824355	313.948445	none	NaN	NaN
128	11	96	48	bathroom	sun_aqrpegblszgcoujh.tif	28931.022765	28931.281144	28933.266643	16-Jun-2025 15:23:13	28614.824355	316.198410	none	NaN	NaN
128	11	97	50	bathroom	sun_aspsyogrekjtfozg.tif	28933.272784	28933.531130	28935.516644	16-Jun-2025 15:23:13	28614.824355	318.448429	5	28936.487516	1.000000
128	11	98	22	bathroom	sun_agguqiubmwhqqunb.tif	28942.539351	28942.797725	28944.783325	16-Jun-2025 15:23:13	28614.824355	327.714996	none	NaN	NaN
128	11	99	33	bathroom	sun_aljolscmmzydegqp.tif	28944.789326	28945.047666	28947.033415	16-Jun-2025 15:23:13	28614.824355	329.964971	none	NaN	NaN
128	11	100	30	bathroom	sun_ajlawzvmubibwbpy.tif	28947.039332	28947.297683	28949.283379	16-Jun-2025 15:23:13	28614.824355	332.214977	none	NaN	NaN
