subject	run	trial	texture	category	image	trialOnset	itiOnset	trialEnd	triggerDate	triggerTimeStamp	Onsets	responseKey	responseTime	accuracy
127	3	1	27	bathroom	sun_ahcvzmoyaycdoftf.tif	12977.467745	12977.726089	12979.711677	16-Jun-2025 11:02:32	12973.443598	4.024147	none	NaN	NaN
127	3	2	21	bathroom	sun_aggnnqpdorgxpvce.tif	12979.726087	12979.984313	12981.970359	16-Jun-2025 11:02:32	12973.443598	6.282489	none	NaN	NaN
127	3	3	19	bathroom	sun_aclfzgynxzxlbepz.tif	12981.984372	12982.242840	12984.228165	16-Jun-2025 11:02:32	12973.443598	8.540774	none	NaN	NaN
127	3	4	46	bathroom	sun_apmqjbnwghzuhhzh.tif	12984.242257	12984.500955	12986.486739	16-Jun-2025 11:02:32	12973.443598	10.798659	none	NaN	NaN
127	3	5	17	bathroom	sun_acegryoqftbzowsg.tif	12986.501020	12986.759218	12988.745314	16-Jun-2025 11:02:32	12973.443598	13.057423	none	NaN	NaN
127	3	6	34	bathroom	sun_alkosphxlxwjwgjd.tif	12988.762219	12989.017808	12991.006358	16-Jun-2025 11:02:32	12973.443598	15.318621	none	NaN	NaN
127	3	7	18	bathroom	sun_acgyywnybuveqsro.tif	12991.017889	12991.275654	12993.261829	16-Jun-2025 11:02:32	12973.443598	17.574292	none	NaN	NaN
127	3	8	38	bathroom	sun_anhioqovhscjqqwb.tif	12993.275922	12993.534323	12995.519706	16-Jun-2025 11:02:32	12973.443598	19.832325	none	NaN	NaN
127	3	9	50	bathroom	sun_aspsyogrekjtfozg.tif	12995.534422	12995.792790	12997.778982	16-Jun-2025 11:02:32	12973.443598	22.090824	none	NaN	NaN
127	3	10	29	bathroom	sun_ahqjwnzgolcaoidx.tif	12997.792154	12998.051155	13000.036611	16-Jun-2025 11:02:32	12973.443598	24.348556	5	13002.203147	1.000000
127	3	11	53	bathroom	sun_ausgutylgojavyoq.tif	13007.075613	13007.334180	13009.319863	16-Jun-2025 11:02:32	12973.443598	33.632015	5	13010.640586	0.000000
127	3	12	59	bathroom	sun_axyrejkiiaqiurjk.tif	13016.359492	13016.617807	13018.603828	16-Jun-2025 11:02:32	12973.443598	42.915894	none	NaN	NaN
127	3	13	24	bathroom	sun_agrwbmhcpmfuwmsg.tif	13018.617203	13018.876103	13020.861186	16-Jun-2025 11:02:32	12973.443598	45.173606	none	NaN	NaN
127	3	14	58	bathroom	sun_axxbkopsgyouuebh.tif	13020.875598	13021.134065	13023.120250	16-Jun-2025 11:02:32	12973.443598	47.432000	5	13025.260467	1.000000
127	3	15	31	bathroom	sun_akiytfaagpdsphgz.tif	13030.158935	13030.417212	13032.403264	16-Jun-2025 11:02:32	12973.443598	56.715338	none	NaN	NaN
127	3	16	13	bathroom	sun_aavhrsfjbserjtht.tif	13032.417294	13032.675620	13034.661272	16-Jun-2025 11:02:32	12973.443598	58.973696	none	NaN	NaN
127	3	17	54	bathroom	sun_auzqhkafidnkrwmo.tif	13034.675731	13034.933825	13036.920131	16-Jun-2025 11:02:32	12973.443598	61.232133	none	NaN	NaN
127	3	18	37	bathroom	sun_amzlamotzwfkwjco.tif	13036.934933	13037.192236	13039.179169	16-Jun-2025 11:02:32	12973.443598	63.491335	none	NaN	NaN
127	3	19	49	bathroom	sun_asfwthctfqerjvxr.tif	13039.192108	13039.450556	13041.436694	16-Jun-2025 11:02:32	12973.443598	65.748511	none	NaN	NaN
127	3	20	45	bathroom	sun_apkxzenqapsujocq.tif	13041.450522	13041.708884	13043.694936	16-Jun-2025 11:02:32	12973.443598	68.006924	none	NaN	NaN
127	3	21	39	bathroom	sun_anryaplzeujmzfkd.tif	13043.708795	13043.967204	13045.952850	16-Jun-2025 11:02:32	12973.443598	70.265197	none	NaN	NaN
127	3	22	51	bathroom	sun_atstyziqcmkahyxk.tif	13045.967168	13046.225622	13048.211494	16-Jun-2025 11:02:32	12973.443598	72.523571	none	NaN	NaN
127	3	23	30	bathroom	sun_ajlawzvmubibwbpy.tif	13048.225357	13048.483813	13050.469160	16-Jun-2025 11:02:32	12973.443598	74.781760	none	NaN	NaN
127	3	24	33	bathroom	sun_aljolscmmzydegqp.tif	13050.484115	13050.742962	13052.728452	16-Jun-2025 11:02:32	12973.443598	77.040518	none	NaN	NaN
127	3	25	20	bathroom	sun_afcoljnjfoxjtgja.tif	13052.741660	13053.000691	13054.985888	16-Jun-2025 11:02:32	12973.443598	79.298063	none	NaN	NaN
127	3	26	60	bathroom	sun_azqyogdvyhahyram.tif	13055.000501	13055.259502	13057.244466	16-Jun-2025 11:02:32	12973.443598	81.556904	none	NaN	NaN
127	3	27	22	bathroom	sun_agguqiubmwhqqunb.tif	13057.258781	13057.516881	13059.503334	16-Jun-2025 11:02:32	12973.443598	83.815184	6	13061.391053	0.000000
127	3	28	55	bathroom	sun_avhrdrntsqrjzccq.tif	13066.542475	13066.800002	13068.786498	16-Jun-2025 11:02:32	12973.443598	93.098877	none	NaN	NaN
127	3	29	52	bathroom	sun_aunuadmjocsddsrl.tif	13068.801170	13069.058782	13071.045642	16-Jun-2025 11:02:32	12973.443598	95.357572	none	NaN	NaN
127	3	30	14	bathroom	sun_abapwbhyhkfixyex.tif	13071.058300	13071.317755	13073.302317	16-Jun-2025 11:02:32	12973.443598	97.614702	none	NaN	NaN
127	3	31	35	bathroom	sun_alotolagknyrgtsk.tif	13073.316486	13073.575552	13075.561006	16-Jun-2025 11:02:32	12973.443598	99.872888	none	NaN	NaN
127	3	32	11	bathroom	labelme_sfxiulhjbhlyiyt.tif	13075.575157	13075.833668	13077.819177	16-Jun-2025 11:02:32	12973.443598	102.131560	none	NaN	NaN
127	3	33	48	bathroom	sun_aqrpegblszgcoujh.tif	13077.833977	13078.092053	13080.077806	16-Jun-2025 11:02:32	12973.443598	104.390379	none	NaN	NaN
127	3	34	28	bathroom	sun_ahijqszoswveeyji.tif	13080.091783	13080.350226	13082.336233	16-Jun-2025 11:02:32	12973.443598	106.648186	5	13084.227528	0.000000
127	3	35	57	bathroom	sun_axldvoqbuvuggfmq.tif	13089.374892	13089.633470	13091.618903	16-Jun-2025 11:02:32	12973.443598	115.931295	none	NaN	NaN
127	3	36	26	bathroom	sun_ahaulkltgpkeeemi.tif	13091.633450	13091.892069	13093.878039	16-Jun-2025 11:02:32	12973.443598	118.189852	none	NaN	NaN
127	3	37	23	bathroom	sun_aghyqhbptboemmoq.tif	13093.891638	13094.149974	13096.136054	16-Jun-2025 11:02:32	12973.443598	120.448041	none	NaN	NaN
127	3	38	47	bathroom	sun_apynckhmoftszqoq.tif	13096.150164	13096.408406	13098.394023	16-Jun-2025 11:02:32	12973.443598	122.706566	none	NaN	NaN
127	3	39	42	bathroom	sun_apeeialkgkuxddgh.tif	13098.408396	13098.666580	13100.652809	16-Jun-2025 11:02:32	12973.443598	124.964798	5	13105.126753	0.000000
127	3	40	25	bathroom	sun_agyqfjcfkdcydepw.tif	13107.683855	13107.941759	13109.927743	16-Jun-2025 11:02:32	12973.443598	134.240257	none	NaN	NaN
127	3	41	32	bathroom	sun_aleqenyvunhactkl.tif	13109.941397	13110.200153	13112.185308	16-Jun-2025 11:02:32	12973.443598	136.497799	none	NaN	NaN
127	3	42	12	bathroom	sun_aapitsgbtktqubfy.tif	13112.199787	13112.458190	13114.443697	16-Jun-2025 11:02:32	12973.443598	138.756189	none	NaN	NaN
127	3	43	36	bathroom	sun_ambriybtogmepttm.tif	13114.458384	13114.716509	13116.702236	16-Jun-2025 11:02:32	12973.443598	141.014786	none	NaN	NaN
127	3	44	44	bathroom	sun_apkruvsevgegsdwp.tif	13116.716602	13116.974479	13118.960996	16-Jun-2025 11:02:32	12973.443598	143.273004	none	NaN	NaN
127	3	45	56	bathroom	sun_awnqiikzaispgmwo.tif	13118.974855	13119.233396	13121.218801	16-Jun-2025 11:02:32	12973.443598	145.531257	none	NaN	NaN
127	3	46	15	bathroom	sun_abjtwfukuwddzted.tif	13121.233219	13121.491983	13123.477468	16-Jun-2025 11:02:32	12973.443598	147.789622	none	NaN	NaN
127	3	47	16	bathroom	sun_acduarbnmmoglmiv.tif	13123.491537	13123.750007	13125.736200	16-Jun-2025 11:02:32	12973.443598	150.047940	none	NaN	NaN
127	3	48	43	bathroom	sun_apjevzvycyhuqghb.tif	13125.749974	13126.007975	13127.994449	16-Jun-2025 11:02:32	12973.443598	152.306376	none	NaN	NaN
127	3	49	40	bathroom	sun_aofnryafpsjimzsb.tif	13128.008170	13128.266270	13130.252695	16-Jun-2025 11:02:32	12973.443598	154.564572	none	NaN	NaN
127	3	50	41	bathroom	sun_aoybiabnpadelefl.tif	13130.266587	13130.525417	13132.510640	16-Jun-2025 11:02:32	12973.443598	156.822990	6	13134.248513	0.000000
127	3	51	27	bathroom	sun_ahcvzmoyaycdoftf.tif	13139.550072	13139.807675	13141.794043	16-Jun-2025 11:02:32	12973.443598	166.106474	none	NaN	NaN
127	3	52	36	bathroom	sun_ambriybtogmepttm.tif	13141.807889	13142.066388	13144.052165	16-Jun-2025 11:02:32	12973.443598	168.364291	none	NaN	NaN
127	3	53	37	bathroom	sun_amzlamotzwfkwjco.tif	13144.066350	13144.324670	13146.310802	16-Jun-2025 11:02:32	12973.443598	170.622753	none	NaN	NaN
127	3	54	14	bathroom	sun_abapwbhyhkfixyex.tif	13146.324528	13146.583088	13148.568387	16-Jun-2025 11:02:32	12973.443598	172.880931	none	NaN	NaN
127	3	55	40	bathroom	sun_aofnryafpsjimzsb.tif	13148.582963	13148.841303	13150.826747	16-Jun-2025 11:02:32	12973.443598	175.139365	none	NaN	NaN
127	3	56	41	bathroom	sun_aoybiabnpadelefl.tif	13150.841150	13151.099611	13153.085629	16-Jun-2025 11:02:32	12973.443598	177.397553	none	NaN	NaN
127	3	57	39	bathroom	sun_anryaplzeujmzfkd.tif	13153.099598	13153.357817	13155.343608	16-Jun-2025 11:02:32	12973.443598	179.656000	none	NaN	NaN
127	3	58	43	bathroom	sun_apjevzvycyhuqghb.tif	13155.357671	13155.616161	13157.601667	16-Jun-2025 11:02:32	12973.443598	181.914074	none	NaN	NaN
127	3	59	60	bathroom	sun_azqyogdvyhahyram.tif	13157.616028	13157.875237	13159.860329	16-Jun-2025 11:02:32	12973.443598	184.172430	none	NaN	NaN
127	3	60	38	bathroom	sun_anhioqovhscjqqwb.tif	13159.874422	13160.133018	13162.118591	16-Jun-2025 11:02:32	12973.443598	186.430824	none	NaN	NaN
127	3	61	12	bathroom	sun_aapitsgbtktqubfy.tif	13162.132826	13162.391093	13164.377146	16-Jun-2025 11:02:32	12973.443598	188.689228	none	NaN	NaN
127	3	62	11	bathroom	labelme_sfxiulhjbhlyiyt.tif	13164.391041	13164.649510	13166.635037	16-Jun-2025 11:02:32	12973.443598	190.947444	none	NaN	NaN
127	3	63	30	bathroom	sun_ajlawzvmubibwbpy.tif	13166.649499	13166.907923	13168.893936	16-Jun-2025 11:02:32	12973.443598	193.205901	none	NaN	NaN
127	3	64	28	bathroom	sun_ahijqszoswveeyji.tif	13168.907662	13169.166125	13171.151821	16-Jun-2025 11:02:32	12973.443598	195.464064	none	NaN	NaN
127	3	65	48	bathroom	sun_aqrpegblszgcoujh.tif	13171.165885	13171.424238	13173.410482	16-Jun-2025 11:02:32	12973.443598	197.722288	none	NaN	NaN
127	3	66	25	bathroom	sun_agyqfjcfkdcydepw.tif	13173.423972	13173.694114	13175.667960	16-Jun-2025 11:02:32	12973.443598	199.980375	6	13178.343135	1.000000
127	3	67	23	bathroom	sun_aghyqhbptboemmoq.tif	13182.707634	13182.966161	13184.951782	16-Jun-2025 11:02:32	12973.443598	209.264036	none	NaN	NaN
127	3	68	16	bathroom	sun_acduarbnmmoglmiv.tif	13184.966444	13185.224046	13187.210512	16-Jun-2025 11:02:32	12973.443598	211.522847	5	13189.016444	1.000000
127	3	69	58	bathroom	sun_axxbkopsgyouuebh.tif	13194.249438	13194.507959	13196.493910	16-Jun-2025 11:02:32	12973.443598	220.805840	none	NaN	NaN
127	3	70	21	bathroom	sun_aggnnqpdorgxpvce.tif	13196.507367	13196.766048	13198.751562	16-Jun-2025 11:02:32	12973.443598	223.063769	5	13202.304744	0.000000
127	3	71	26	bathroom	sun_ahaulkltgpkeeemi.tif	13205.792493	13206.049018	13208.037095	16-Jun-2025 11:02:32	12973.443598	232.348895	none	NaN	NaN
127	3	72	34	bathroom	sun_alkosphxlxwjwgjd.tif	13208.049059	13208.307470	13210.293578	16-Jun-2025 11:02:32	12973.443598	234.605461	none	NaN	NaN
127	3	73	52	bathroom	sun_aunuadmjocsddsrl.tif	13210.307332	13210.565991	13212.551924	16-Jun-2025 11:02:32	12973.443598	236.863734	6	13214.291759	1.000000
127	3	74	15	bathroom	sun_abjtwfukuwddzted.tif	13219.591403	13219.849107	13221.835706	16-Jun-2025 11:02:32	12973.443598	246.147805	none	NaN	NaN
127	3	75	13	bathroom	sun_aavhrsfjbserjtht.tif	13221.848991	13222.107578	13224.092963	16-Jun-2025 11:02:32	12973.443598	248.405394	none	NaN	NaN
127	3	76	46	bathroom	sun_apmqjbnwghzuhhzh.tif	13224.107203	13224.365649	13226.351283	16-Jun-2025 11:02:32	12973.443598	250.663605	none	NaN	NaN
127	3	77	59	bathroom	sun_axyrejkiiaqiurjk.tif	13226.365462	13226.623874	13228.609353	16-Jun-2025 11:02:32	12973.443598	252.921864	none	NaN	NaN
127	3	78	42	bathroom	sun_apeeialkgkuxddgh.tif	13228.623840	13228.882179	13230.868056	16-Jun-2025 11:02:32	12973.443598	255.180242	5	13232.380771	1.000000
127	3	79	24	bathroom	sun_agrwbmhcpmfuwmsg.tif	13237.898271	13238.157130	13240.142530	16-Jun-2025 11:02:32	12973.443598	264.454673	none	NaN	NaN
127	3	80	35	bathroom	sun_alotolagknyrgtsk.tif	13240.157012	13240.415708	13242.401501	16-Jun-2025 11:02:32	12973.443598	266.713414	none	NaN	NaN
127	3	81	57	bathroom	sun_axldvoqbuvuggfmq.tif	13242.415677	13242.673904	13244.660139	16-Jun-2025 11:02:32	12973.443598	268.972079	none	NaN	NaN
127	3	82	32	bathroom	sun_aleqenyvunhactkl.tif	13244.673737	13244.931883	13246.918182	16-Jun-2025 11:02:32	12973.443598	271.230140	none	NaN	NaN
127	3	83	55	bathroom	sun_avhrdrntsqrjzccq.tif	13246.932312	13247.190392	13249.176410	16-Jun-2025 11:02:32	12973.443598	273.488714	none	NaN	NaN
127	3	84	22	bathroom	sun_agguqiubmwhqqunb.tif	13249.190661	13249.449077	13251.434644	16-Jun-2025 11:02:32	12973.443598	275.747064	none	NaN	NaN
127	3	85	45	bathroom	sun_apkxzenqapsujocq.tif	13251.449731	13251.706798	13253.694138	16-Jun-2025 11:02:32	12973.443598	278.006133	6	13256.686958	0.000000
127	3	86	20	bathroom	sun_afcoljnjfoxjtgja.tif	13260.731996	13260.990474	13262.975922	16-Jun-2025 11:02:32	12973.443598	287.288398	none	NaN	NaN
127	3	87	19	bathroom	sun_aclfzgynxzxlbepz.tif	13262.990221	13263.248690	13265.234334	16-Jun-2025 11:02:32	12973.443598	289.546623	none	NaN	NaN
127	3	88	31	bathroom	sun_akiytfaagpdsphgz.tif	13265.248454	13265.506984	13267.493029	16-Jun-2025 11:02:32	12973.443598	291.804856	none	NaN	NaN
127	3	89	47	bathroom	sun_apynckhmoftszqoq.tif	13267.506828	13267.765316	13269.751070	16-Jun-2025 11:02:32	12973.443598	294.063230	none	NaN	NaN
127	3	90	17	bathroom	sun_acegryoqftbzowsg.tif	13269.765178	13270.023404	13272.009745	16-Jun-2025 11:02:32	12973.443598	296.321581	5	13274.788903	0.000000
127	3	91	33	bathroom	sun_aljolscmmzydegqp.tif	13279.048664	13279.306891	13281.293122	16-Jun-2025 11:02:32	12973.443598	305.605066	none	NaN	NaN
127	3	92	51	bathroom	sun_atstyziqcmkahyxk.tif	13281.305651	13281.565187	13283.549722	16-Jun-2025 11:02:32	12973.443598	307.862054	none	NaN	NaN
127	3	93	54	bathroom	sun_auzqhkafidnkrwmo.tif	13283.558606	13283.814836	13285.802728	16-Jun-2025 11:02:32	12973.443598	310.115009	5	13287.675648	1.000000
127	3	94	18	bathroom	sun_acgyywnybuveqsro.tif	13292.839942	13293.098111	13295.084781	16-Jun-2025 11:02:32	12973.443598	319.396344	none	NaN	NaN
127	3	95	50	bathroom	sun_aspsyogrekjtfozg.tif	13295.098580	13295.356696	13297.343182	16-Jun-2025 11:02:32	12973.443598	321.654982	none	NaN	NaN
127	3	96	53	bathroom	sun_ausgutylgojavyoq.tif	13297.356896	13297.615826	13299.601285	16-Jun-2025 11:02:32	12973.443598	323.913298	none	NaN	NaN
127	3	97	56	bathroom	sun_awnqiikzaispgmwo.tif	13299.616584	13299.873058	13301.860860	16-Jun-2025 11:02:32	12973.443598	326.172986	none	NaN	NaN
127	3	98	49	bathroom	sun_asfwthctfqerjvxr.tif	13301.873530	13302.132493	13304.117458	16-Jun-2025 11:02:32	12973.443598	328.429932	none	NaN	NaN
127	3	99	44	bathroom	sun_apkruvsevgegsdwp.tif	13304.131970	13304.390297	13306.375998	16-Jun-2025 11:02:32	12973.443598	330.688373	none	NaN	NaN
127	3	100	29	bathroom	sun_ahqjwnzgolcaoidx.tif	13306.390016	13306.648491	13308.634548	16-Jun-2025 11:02:32	12973.443598	332.946418	none	NaN	NaN
