subject	run	trial	texture	category	image	trialOnset	itiOnset	trialEnd	triggerDate	triggerTimeStamp	Onsets	responseKey	responseTime	accuracy
120	4	1	18	kitchen	sun_aaxxjlsuzvqlgylf.tif	26275.903951	26276.162210	26278.148152	08-May-2025 15:30:25	26271.885979	4.017972	6	26279.259072	1.000000
120	4	2	27	kitchen	sun_acxkpeoqbwcxfvip.tif	26285.178874	26285.437215	26287.422840	08-May-2025 15:30:25	26271.885979	13.292894	none	NaN	NaN
120	4	3	29	kitchen	sun_admlmbcdswaszruo.tif	26287.428837	26287.687192	26289.672664	08-May-2025 15:30:25	26271.885979	15.542858	none	NaN	NaN
120	4	4	36	kitchen	sun_aggjlwcdjsjcaemh.tif	26289.678816	26289.937144	26291.923068	08-May-2025 15:30:25	26271.885979	17.792837	5	26293.037006	1.000000
120	4	5	44	kitchen	sun_ahywdevtimnqcsln.tif	26298.945428	26299.203764	26301.190003	08-May-2025 15:30:25	26271.885979	27.059449	none	NaN	NaN
120	4	6	45	kitchen	sun_aixorpehvfykdynp.tif	26301.195349	26301.453725	26303.439306	08-May-2025 15:30:25	26271.885979	29.309370	none	NaN	NaN
120	4	7	25	kitchen	sun_acgtpgfybqjmzeyw.tif	26303.445365	26303.703734	26305.689664	08-May-2025 15:30:25	26271.885979	31.559386	none	NaN	NaN
120	4	8	38	kitchen	sun_agubuxuukhzyzpdp.tif	26305.695345	26305.953672	26307.939376	08-May-2025 15:30:25	26271.885979	33.809366	none	NaN	NaN
120	4	9	35	kitchen	sun_afuyedyxivkhecmu.tif	26307.945290	26308.203601	26310.189221	08-May-2025 15:30:25	26271.885979	36.059311	none	NaN	NaN
120	4	10	54	kitchen	sun_auticobqsbwgoppi.tif	26310.195318	26310.453669	26312.439766	08-May-2025 15:30:25	26271.885979	38.309339	none	NaN	NaN
120	4	11	22	kitchen	sun_abpwyqmlzafvklqo.tif	26312.453647	26312.712355	26314.697517	08-May-2025 15:30:25	26271.885979	40.567668	none	NaN	NaN
120	4	12	16	kitchen	sun_aapllqyqlykszopd.tif	26314.703621	26314.961965	26316.947757	08-May-2025 15:30:25	26271.885979	42.817641	none	NaN	NaN
120	4	13	19	kitchen	sun_abdenxonkemggwsq.tif	26316.953584	26317.211948	26319.197635	08-May-2025 15:30:25	26271.885979	45.067605	none	NaN	NaN
120	4	14	58	kitchen	sun_aymvwlarqodbwuoc.tif	26319.211928	26319.470253	26321.456150	08-May-2025 15:30:25	26271.885979	47.325949	none	NaN	NaN
120	4	15	55	kitchen	sun_avszsnwsbuqfgzbn.tif	26321.461923	26321.720230	26323.706090	08-May-2025 15:30:25	26271.885979	49.575944	none	NaN	NaN
120	4	16	28	kitchen	sun_adgqasybjyktddhj.tif	26323.711861	26323.970218	26325.956267	08-May-2025 15:30:25	26271.885979	51.825882	none	NaN	NaN
120	4	17	51	kitchen	sun_aqeaevwwwjoqhzvl.tif	26325.970211	26326.228917	26328.214221	08-May-2025 15:30:25	26271.885979	54.084232	none	NaN	NaN
120	4	18	49	kitchen	sun_akcjzhbbjlbogpdi.tif	26328.220190	26328.478509	26330.464342	08-May-2025 15:30:25	26271.885979	56.334211	none	NaN	NaN
120	4	19	40	kitchen	sun_ahdycvpopffkzzsu.tif	26330.470123	26330.728492	26332.714036	08-May-2025 15:30:25	26271.885979	58.584143	6	26334.440544	0.000000
120	4	20	20	kitchen	sun_abdxkyyxwfskuaqb.tif	26339.745457	26340.003407	26341.989268	08-May-2025 15:30:25	26271.885979	67.859478	6	26343.458049	1.000000
120	4	21	31	kitchen	sun_aehawpgmrlhlvcow.tif	26349.011591	26349.270000	26351.255518	08-May-2025 15:30:25	26271.885979	77.125612	none	NaN	NaN
120	4	22	56	kitchen	sun_awcpdzzznmweyyhv.tif	26351.261603	26351.519984	26353.505826	08-May-2025 15:30:25	26271.885979	79.375624	none	NaN	NaN
120	4	23	43	kitchen	sun_ahspylgoovwmwvgk.tif	26353.519960	26353.778311	26355.764387	08-May-2025 15:30:25	26271.885979	81.633981	none	NaN	NaN
120	4	24	47	kitchen	sun_ajkqhtgcbgpcwrwn.tif	26355.770057	26356.028279	26358.014480	08-May-2025 15:30:25	26271.885979	83.884077	5	26359.453666	0.000000
120	4	25	41	kitchen	sun_ahljzhgcdpomplvg.tif	26365.036483	26365.294866	26367.280305	08-May-2025 15:30:25	26271.885979	93.150504	none	NaN	NaN
120	4	26	46	kitchen	sun_ajcbwwvdlsvjyzje.tif	26367.286423	26367.544857	26369.530479	08-May-2025 15:30:25	26271.885979	95.400444	none	NaN	NaN
120	4	27	12	kitchen	labelme_kxvouciolcpqplr.tif	26369.536476	26369.794840	26371.780386	08-May-2025 15:30:25	26271.885979	97.650497	none	NaN	NaN
120	4	28	59	kitchen	sun_aypmqwcualkenuoe.tif	26371.795194	26372.053143	26374.039578	08-May-2025 15:30:25	26271.885979	99.909215	none	NaN	NaN
120	4	29	26	kitchen	sun_acwjdupvyjsugpay.tif	26374.053661	26374.311842	26376.297692	08-May-2025 15:30:25	26271.885979	102.167682	none	NaN	NaN
120	4	30	37	kitchen	sun_agorklincwxrdtga.tif	26376.311442	26376.569775	26378.555592	08-May-2025 15:30:25	26271.885979	104.425463	none	NaN	NaN
120	4	31	52	kitchen	sun_auaiucuqpdausiva.tif	26378.561380	26378.820148	26380.805878	08-May-2025 15:30:25	26271.885979	106.675401	none	NaN	NaN
120	4	32	60	kitchen	sun_azmutvzbxypaceni.tif	26380.811352	26381.069740	26383.055505	08-May-2025 15:30:25	26271.885979	108.925373	none	NaN	NaN
120	4	33	48	kitchen	sun_akchetnepxlcxhsu.tif	26383.061763	26383.320094	26385.306106	08-May-2025 15:30:25	26271.885979	111.175784	none	NaN	NaN
120	4	34	50	kitchen	sun_amjjdeyrggfqgmom.tif	26385.311667	26385.569709	26387.556176	08-May-2025 15:30:25	26271.885979	113.425688	none	NaN	NaN
120	4	35	57	kitchen	sun_axyyrmzcupyhlivc.tif	26387.570058	26387.828390	26389.814181	08-May-2025 15:30:25	26271.885979	115.684079	none	NaN	NaN
120	4	36	15	kitchen	sun_aamedkxepzlwuxes.tif	26389.819644	26390.077996	26392.064319	08-May-2025 15:30:25	26271.885979	117.933665	none	NaN	NaN
120	4	37	14	kitchen	sun_aadbddgrdsjugojn.tif	26392.078369	26392.336308	26394.322682	08-May-2025 15:30:25	26271.885979	120.192390	none	NaN	NaN
120	4	38	39	kitchen	sun_agzzivivdpnawacl.tif	26394.327913	26394.586653	26396.572244	08-May-2025 15:30:25	26271.885979	122.441934	none	NaN	NaN
120	4	39	53	kitchen	sun_aunzlwrbjumxhwdj.tif	26396.586272	26396.844615	26398.830494	08-May-2025 15:30:25	26271.885979	124.700293	none	NaN	NaN
120	4	40	21	kitchen	sun_abftihopvusyfakt.tif	26398.836269	26399.094859	26401.080333	08-May-2025 15:30:25	26271.885979	126.950290	none	NaN	NaN
120	4	41	33	kitchen	sun_aeqdocilnnpuvuhx.tif	26401.086203	26401.344453	26403.330032	08-May-2025 15:30:25	26271.885979	129.200224	none	NaN	NaN
120	4	42	23	kitchen	sun_abrcnpqqhmjwekyf.tif	26403.344548	26403.602812	26405.589055	08-May-2025 15:30:25	26271.885979	131.458569	none	NaN	NaN
120	4	43	34	kitchen	sun_aexklacwqwezaorf.tif	26405.602851	26405.861134	26407.846939	08-May-2025 15:30:25	26271.885979	133.716872	none	NaN	NaN
120	4	44	42	kitchen	sun_ahpczsiumwwocjkv.tif	26407.861182	26408.119428	26410.105558	08-May-2025 15:30:25	26271.885979	135.975203	none	NaN	NaN
120	4	45	32	kitchen	sun_aenotlpyftoioydp.tif	26410.111127	26410.369402	26412.354999	08-May-2025 15:30:25	26271.885979	138.225148	none	NaN	NaN
120	4	46	30	kitchen	sun_aegoxogugdkwpmpj.tif	26412.361033	26412.619340	26414.605192	08-May-2025 15:30:25	26271.885979	140.475054	none	NaN	NaN
120	4	47	11	kitchen	labelme_brsyyvweiuaazfr.tif	26414.611127	26414.869435	26416.855596	08-May-2025 15:30:25	26271.885979	142.725147	none	NaN	NaN
120	4	48	13	kitchen	labelme_rykdqxenmhulbdn.tif	26416.869421	26417.127694	26419.113417	08-May-2025 15:30:25	26271.885979	144.983442	5	26422.004186	1.000000
120	4	49	17	kitchen	sun_aarfiyshqohlwkmo.tif	26426.135898	26426.394348	26428.379797	08-May-2025 15:30:25	26271.885979	154.249919	none	NaN	NaN
120	4	50	24	kitchen	sun_acfmftudsenhrfhy.tif	26428.385927	26428.644283	26430.630257	08-May-2025 15:30:25	26271.885979	156.499948	none	NaN	NaN
120	4	51	41	kitchen	sun_ahljzhgcdpomplvg.tif	26430.635928	26430.894317	26432.880487	08-May-2025 15:30:25	26271.885979	158.749949	5	26433.877182	1.000000
120	4	52	35	kitchen	sun_afuyedyxivkhecmu.tif	26439.894217	26440.152576	26442.138815	08-May-2025 15:30:25	26271.885979	168.008238	none	NaN	NaN
120	4	53	28	kitchen	sun_adgqasybjyktddhj.tif	26442.152546	26442.410893	26444.396479	08-May-2025 15:30:25	26271.885979	170.266567	none	NaN	NaN
120	4	54	42	kitchen	sun_ahpczsiumwwocjkv.tif	26444.402484	26444.660869	26446.647128	08-May-2025 15:30:25	26271.885979	172.516505	none	NaN	NaN
120	4	55	37	kitchen	sun_agorklincwxrdtga.tif	26446.652489	26446.910852	26448.896361	08-May-2025 15:30:25	26271.885979	174.766510	none	NaN	NaN
120	4	56	52	kitchen	sun_auaiucuqpdausiva.tif	26448.910833	26449.169160	26451.155109	08-May-2025 15:30:25	26271.885979	177.024854	none	NaN	NaN
120	4	57	16	kitchen	sun_aapllqyqlykszopd.tif	26451.169147	26451.427478	26453.413691	08-May-2025 15:30:25	26271.885979	179.283168	none	NaN	NaN
120	4	58	56	kitchen	sun_awcpdzzznmweyyhv.tif	26453.427458	26453.685792	26455.671835	08-May-2025 15:30:25	26271.885979	181.541479	5	26457.256286	0.000000
120	4	59	14	kitchen	sun_aadbddgrdsjugojn.tif	26462.694428	26462.952378	26464.938674	08-May-2025 15:30:25	26271.885979	190.808449	none	NaN	NaN
120	4	60	30	kitchen	sun_aegoxogugdkwpmpj.tif	26464.943979	26465.202361	26467.188340	08-May-2025 15:30:25	26271.885979	193.058000	none	NaN	NaN
120	4	61	23	kitchen	sun_abrcnpqqhmjwekyf.tif	26467.193995	26467.452337	26469.438607	08-May-2025 15:30:25	26271.885979	195.308015	5	26471.655346	0.000000
120	4	62	55	kitchen	sun_avszsnwsbuqfgzbn.tif	26476.460548	26476.718931	26478.705051	08-May-2025 15:30:25	26271.885979	204.574569	none	NaN	NaN
120	4	63	12	kitchen	labelme_kxvouciolcpqplr.tif	26478.718866	26478.977243	26480.963297	08-May-2025 15:30:25	26271.885979	206.832887	none	NaN	NaN
120	4	64	39	kitchen	sun_agzzivivdpnawacl.tif	26480.968878	26481.227230	26483.212809	08-May-2025 15:30:25	26271.885979	209.082899	none	NaN	NaN
120	4	65	53	kitchen	sun_aunzlwrbjumxhwdj.tif	26483.218842	26483.477228	26485.463140	08-May-2025 15:30:25	26271.885979	211.332863	none	NaN	NaN
120	4	66	58	kitchen	sun_aymvwlarqodbwuoc.tif	26485.477187	26485.735520	26487.721092	08-May-2025 15:30:25	26271.885979	213.591208	none	NaN	NaN
120	4	67	22	kitchen	sun_abpwyqmlzafvklqo.tif	26487.727156	26487.985482	26489.971015	08-May-2025 15:30:25	26271.885979	215.841177	5	26491.684769	1.000000
120	4	68	20	kitchen	sun_abdxkyyxwfskuaqb.tif	26496.994180	26497.252466	26499.238789	08-May-2025 15:30:25	26271.885979	225.108201	none	NaN	NaN
120	4	69	18	kitchen	sun_aaxxjlsuzvqlgylf.tif	26499.252065	26499.510407	26501.496527	08-May-2025 15:30:25	26271.885979	227.366086	none	NaN	NaN
120	4	70	60	kitchen	sun_azmutvzbxypaceni.tif	26501.502045	26501.760378	26503.746514	08-May-2025 15:30:25	26271.885979	229.616066	none	NaN	NaN
120	4	71	57	kitchen	sun_axyyrmzcupyhlivc.tif	26503.752468	26504.010315	26505.996438	08-May-2025 15:30:25	26271.885979	231.866489	none	NaN	NaN
120	4	72	47	kitchen	sun_ajkqhtgcbgpcwrwn.tif	26506.010724	26506.269182	26508.255101	08-May-2025 15:30:25	26271.885979	234.124745	none	NaN	NaN
120	4	73	15	kitchen	sun_aamedkxepzlwuxes.tif	26508.260304	26508.518663	26510.504323	08-May-2025 15:30:25	26271.885979	236.374325	none	NaN	NaN
120	4	74	49	kitchen	sun_akcjzhbbjlbogpdi.tif	26510.510273	26510.768648	26512.754643	08-May-2025 15:30:25	26271.885979	238.624294	none	NaN	NaN
120	4	75	44	kitchen	sun_ahywdevtimnqcsln.tif	26512.768621	26513.027324	26515.012770	08-May-2025 15:30:25	26271.885979	240.882642	5	26516.079722	1.000000
120	4	76	33	kitchen	sun_aeqdocilnnpuvuhx.tif	26522.035200	26522.293542	26524.279459	08-May-2025 15:30:25	26271.885979	250.149220	none	NaN	NaN
120	4	77	36	kitchen	sun_aggjlwcdjsjcaemh.tif	26524.285124	26524.543523	26526.528902	08-May-2025 15:30:25	26271.885979	252.399144	none	NaN	NaN
120	4	78	45	kitchen	sun_aixorpehvfykdynp.tif	26526.535164	26526.793810	26528.778975	08-May-2025 15:30:25	26271.885979	254.649185	none	NaN	NaN
120	4	79	24	kitchen	sun_acfmftudsenhrfhy.tif	26528.785139	26529.043494	26531.029254	08-May-2025 15:30:25	26271.885979	256.899160	none	NaN	NaN
120	4	80	27	kitchen	sun_acxkpeoqbwcxfvip.tif	26531.035511	26531.293470	26533.279861	08-May-2025 15:30:25	26271.885979	259.149532	none	NaN	NaN
120	4	81	29	kitchen	sun_admlmbcdswaszruo.tif	26533.293827	26533.551743	26535.537918	08-May-2025 15:30:25	26271.885979	261.407847	5	26536.439936	0.000000
120	4	82	34	kitchen	sun_aexklacwqwezaorf.tif	26542.568467	26542.826720	26544.812494	08-May-2025 15:30:25	26271.885979	270.682488	none	NaN	NaN
120	4	83	38	kitchen	sun_agubuxuukhzyzpdp.tif	26544.818321	26545.076686	26547.062616	08-May-2025 15:30:25	26271.885979	272.932342	none	NaN	NaN
120	4	84	59	kitchen	sun_aypmqwcualkenuoe.tif	26547.068322	26547.326661	26549.312119	08-May-2025 15:30:25	26271.885979	275.182343	none	NaN	NaN
120	4	85	13	kitchen	labelme_rykdqxenmhulbdn.tif	26549.318658	26549.576647	26551.563214	08-May-2025 15:30:25	26271.885979	277.432679	none	NaN	NaN
120	4	86	51	kitchen	sun_aqeaevwwwjoqhzvl.tif	26551.576634	26551.834959	26553.820755	08-May-2025 15:30:25	26271.885979	279.690655	5	26555.821640	0.000000
120	4	87	43	kitchen	sun_ahspylgoovwmwvgk.tif	26560.843212	26561.101553	26563.087049	08-May-2025 15:30:25	26271.885979	288.957233	none	NaN	NaN
120	4	88	31	kitchen	sun_aehawpgmrlhlvcow.tif	26563.093199	26563.351519	26565.337490	08-May-2025 15:30:25	26271.885979	291.207220	none	NaN	NaN
120	4	89	40	kitchen	sun_ahdycvpopffkzzsu.tif	26565.343159	26565.601506	26567.587059	08-May-2025 15:30:25	26271.885979	293.457180	6	26569.929319	0.000000
120	4	90	48	kitchen	sun_akchetnepxlcxhsu.tif	26574.601407	26574.859751	26576.845490	08-May-2025 15:30:25	26271.885979	302.715428	none	NaN	NaN
120	4	91	19	kitchen	sun_abdenxonkemggwsq.tif	26576.851421	26577.109746	26579.095370	08-May-2025 15:30:25	26271.885979	304.965441	5	26582.514827	1.000000
120	4	92	46	kitchen	sun_ajcbwwvdlsvjyzje.tif	26586.117903	26586.376329	26588.361912	08-May-2025 15:30:25	26271.885979	314.231924	none	NaN	NaN
120	4	93	25	kitchen	sun_acgtpgfybqjmzeyw.tif	26588.367986	26588.626314	26590.612519	08-May-2025 15:30:25	26271.885979	316.482007	none	NaN	NaN
120	4	94	26	kitchen	sun_acwjdupvyjsugpay.tif	26590.618269	26590.876299	26592.862795	08-May-2025 15:30:25	26271.885979	318.732290	none	NaN	NaN
120	4	95	54	kitchen	sun_auticobqsbwgoppi.tif	26592.876272	26593.134946	26595.120548	08-May-2025 15:30:25	26271.885979	320.990293	none	NaN	NaN
120	4	96	32	kitchen	sun_aenotlpyftoioydp.tif	26595.126246	26595.384581	26597.370070	08-May-2025 15:30:25	26271.885979	323.240267	none	NaN	NaN
120	4	97	11	kitchen	labelme_brsyyvweiuaazfr.tif	26597.376213	26597.634564	26599.620443	08-May-2025 15:30:25	26271.885979	325.490234	none	NaN	NaN
120	4	98	21	kitchen	sun_abftihopvusyfakt.tif	26599.626165	26599.884552	26601.870440	08-May-2025 15:30:25	26271.885979	327.740185	none	NaN	NaN
120	4	99	17	kitchen	sun_aarfiyshqohlwkmo.tif	26601.876148	26602.134528	26604.120733	08-May-2025 15:30:25	26271.885979	329.990169	none	NaN	NaN
120	4	100	50	kitchen	sun_amjjdeyrggfqgmom.tif	26604.126105	26604.384901	26606.370427	08-May-2025 15:30:25	26271.885979	332.240126	none	NaN	NaN
