subject	run	trial	texture	category	image	trialOnset	itiOnset	trialEnd	triggerDate	triggerTimeStamp	Onsets	responseKey	responseTime	accuracy
111	3	1	27	bathroom	sun_ahcvzmoyaycdoftf.tif	18380.516854	18380.775177	18382.760761	14-Apr-2025 13:12:55	18376.486944	4.029910	none	NaN	NaN
111	3	2	21	bathroom	sun_aggnnqpdorgxpvce.tif	18382.766834	18383.025169	18385.011304	14-Apr-2025 13:12:55	18376.486944	6.279890	none	NaN	NaN
111	3	3	19	bathroom	sun_aclfzgynxzxlbepz.tif	18385.016831	18385.275154	18387.260729	14-Apr-2025 13:12:55	18376.486944	8.529887	none	NaN	NaN
111	3	4	46	bathroom	sun_apmqjbnwghzuhhzh.tif	18387.266782	18387.525138	18389.511237	14-Apr-2025 13:12:55	18376.486944	10.779838	none	NaN	NaN
111	3	5	17	bathroom	sun_acegryoqftbzowsg.tif	18389.525108	18389.783435	18391.769515	14-Apr-2025 13:12:55	18376.486944	13.038164	none	NaN	NaN
111	3	6	34	bathroom	sun_alkosphxlxwjwgjd.tif	18391.775556	18392.033858	18394.019785	14-Apr-2025 13:12:55	18376.486944	15.288613	none	NaN	NaN
111	3	7	18	bathroom	sun_acgyywnybuveqsro.tif	18394.025011	18394.283422	18396.269064	14-Apr-2025 13:12:55	18376.486944	17.538067	none	NaN	NaN
111	3	8	38	bathroom	sun_anhioqovhscjqqwb.tif	18396.283403	18396.541725	18398.527641	14-Apr-2025 13:12:55	18376.486944	19.796459	none	NaN	NaN
111	3	9	50	bathroom	sun_aspsyogrekjtfozg.tif	18398.533360	18398.791710	18400.777173	14-Apr-2025 13:12:55	18376.486944	22.046416	none	NaN	NaN
111	3	10	29	bathroom	sun_ahqjwnzgolcaoidx.tif	18400.783708	18401.042167	18403.029028	14-Apr-2025 13:12:55	18376.486944	24.296764	6	18405.376082	0.000000
111	3	11	53	bathroom	sun_ausgutylgojavyoq.tif	18410.058253	18410.316626	18412.302071	14-Apr-2025 13:12:55	18376.486944	33.571310	5	18413.474311	0.000000
111	3	12	59	bathroom	sun_axyrejkiiaqiurjk.tif	18419.333561	18419.592002	18421.578000	14-Apr-2025 13:12:55	18376.486944	42.846618	none	NaN	NaN
111	3	13	24	bathroom	sun_agrwbmhcpmfuwmsg.tif	18421.591510	18421.849851	18423.835411	14-Apr-2025 13:12:55	18376.486944	45.104566	none	NaN	NaN
111	3	14	58	bathroom	sun_axxbkopsgyouuebh.tif	18423.841452	18424.099822	18426.085573	14-Apr-2025 13:12:55	18376.486944	47.354508	6	18427.583490	0.000000
111	3	15	31	bathroom	sun_akiytfaagpdsphgz.tif	18433.116418	18433.374753	18435.360260	14-Apr-2025 13:12:55	18376.486944	56.629474	none	NaN	NaN
111	3	16	13	bathroom	sun_aavhrsfjbserjtht.tif	18435.366381	18435.625114	18437.610185	14-Apr-2025 13:12:55	18376.486944	58.879437	none	NaN	NaN
111	3	17	54	bathroom	sun_auzqhkafidnkrwmo.tif	18437.616383	18437.874708	18439.860481	14-Apr-2025 13:12:55	18376.486944	61.129439	none	NaN	NaN
111	3	18	37	bathroom	sun_amzlamotzwfkwjco.tif	18439.866316	18440.124688	18442.110137	14-Apr-2025 13:12:55	18376.486944	63.379372	none	NaN	NaN
111	3	19	49	bathroom	sun_asfwthctfqerjvxr.tif	18442.116335	18442.374677	18444.360877	14-Apr-2025 13:12:55	18376.486944	65.629391	none	NaN	NaN
111	3	20	45	bathroom	sun_apkxzenqapsujocq.tif	18444.366272	18444.624648	18446.610398	14-Apr-2025 13:12:55	18376.486944	67.879329	none	NaN	NaN
111	3	21	39	bathroom	sun_anryaplzeujmzfkd.tif	18446.616297	18446.874629	18448.860679	14-Apr-2025 13:12:55	18376.486944	70.129353	none	NaN	NaN
111	3	22	51	bathroom	sun_atstyziqcmkahyxk.tif	18448.866230	18449.124617	18451.110344	14-Apr-2025 13:12:55	18376.486944	72.379286	none	NaN	NaN
111	3	23	30	bathroom	sun_ajlawzvmubibwbpy.tif	18451.116683	18451.374594	18453.360760	14-Apr-2025 13:12:55	18376.486944	74.629739	none	NaN	NaN
111	3	24	33	bathroom	sun_aljolscmmzydegqp.tif	18453.366197	18453.625008	18455.610490	14-Apr-2025 13:12:55	18376.486944	76.879253	none	NaN	NaN
111	3	25	20	bathroom	sun_afcoljnjfoxjtgja.tif	18455.616227	18455.875036	18457.860817	14-Apr-2025 13:12:55	18376.486944	79.129283	none	NaN	NaN
111	3	26	60	bathroom	sun_azqyogdvyhahyram.tif	18457.866197	18458.125015	18460.110317	14-Apr-2025 13:12:55	18376.486944	81.379254	none	NaN	NaN
111	3	27	22	bathroom	sun_agguqiubmwhqqunb.tif	18460.116211	18460.374899	18462.360237	14-Apr-2025 13:12:55	18376.486944	83.629267	5  16	18463.437033	0.000000
111	3	28	55	bathroom	sun_avhrdrntsqrjzccq.tif	18469.399443	18469.658159	18471.643511	14-Apr-2025 13:12:55	18376.486944	92.912499	none	NaN	NaN
111	3	29	52	bathroom	sun_aunuadmjocsddsrl.tif	18471.649436	18471.908142	18473.893606	14-Apr-2025 13:12:55	18376.486944	95.162492	none	NaN	NaN
111	3	30	14	bathroom	sun_abapwbhyhkfixyex.tif	18473.899858	18474.158220	18476.144297	14-Apr-2025 13:12:55	18376.486944	97.412914	none	NaN	NaN
111	3	31	35	bathroom	sun_alotolagknyrgtsk.tif	18476.149760	18476.408205	18478.393696	14-Apr-2025 13:12:55	18376.486944	99.662816	none	NaN	NaN
111	3	32	11	bathroom	labelme_sfxiulhjbhlyiyt.tif	18478.399352	18478.657720	18480.643593	14-Apr-2025 13:12:55	18376.486944	101.912408	none	NaN	NaN
111	3	33	48	bathroom	sun_aqrpegblszgcoujh.tif	18480.649360	18480.907683	18482.893152	14-Apr-2025 13:12:55	18376.486944	104.162416	none	NaN	NaN
111	3	34	28	bathroom	sun_ahijqszoswveeyji.tif	18482.899335	18483.157663	18485.143395	14-Apr-2025 13:12:55	18376.486944	106.412392	5	18486.623908	0.000000
111	3	35	57	bathroom	sun_axldvoqbuvuggfmq.tif	18492.165933	18492.424255	18494.409817	14-Apr-2025 13:12:55	18376.486944	115.678989	none	NaN	NaN
111	3	36	26	bathroom	sun_ahaulkltgpkeeemi.tif	18494.415904	18494.674240	18496.660181	14-Apr-2025 13:12:55	18376.486944	117.928960	none	NaN	NaN
111	3	37	23	bathroom	sun_aghyqhbptboemmoq.tif	18496.665856	18496.924222	18498.909969	14-Apr-2025 13:12:55	18376.486944	120.178912	none	NaN	NaN
111	3	38	47	bathroom	sun_apynckhmoftszqoq.tif	18498.915837	18499.174196	18501.159828	14-Apr-2025 13:12:55	18376.486944	122.428893	none	NaN	NaN
111	3	39	42	bathroom	sun_apeeialkgkuxddgh.tif	18501.165851	18501.424187	18503.409904	14-Apr-2025 13:12:55	18376.486944	124.678907	5	18505.121986	0.000000
111	3	40	25	bathroom	sun_agyqfjcfkdcydepw.tif	18510.432875	18510.690784	18512.676723	14-Apr-2025 13:12:55	18376.486944	133.945931	none	NaN	NaN
111	3	41	32	bathroom	sun_aleqenyvunhactkl.tif	18512.682805	18512.941139	18514.926989	14-Apr-2025 13:12:55	18376.486944	136.195861	none	NaN	NaN
111	3	42	12	bathroom	sun_aapitsgbtktqubfy.tif	18514.932768	18515.191120	18517.176929	14-Apr-2025 13:12:55	18376.486944	138.445824	none	NaN	NaN
111	3	43	36	bathroom	sun_ambriybtogmepttm.tif	18517.182359	18517.440733	18519.426182	14-Apr-2025 13:12:55	18376.486944	140.695415	none	NaN	NaN
111	3	44	44	bathroom	sun_apkruvsevgegsdwp.tif	18519.432833	18519.691131	18521.677086	14-Apr-2025 13:12:55	18376.486944	142.945889	none	NaN	NaN
111	3	45	56	bathroom	sun_awnqiikzaispgmwo.tif	18521.682303	18521.941148	18523.926910	14-Apr-2025 13:12:55	18376.486944	145.195359	none	NaN	NaN
111	3	46	15	bathroom	sun_abjtwfukuwddzted.tif	18523.932340	18524.191046	18526.176780	14-Apr-2025 13:12:55	18376.486944	147.445396	none	NaN	NaN
111	3	47	16	bathroom	sun_acduarbnmmoglmiv.tif	18526.182240	18526.441024	18528.426825	14-Apr-2025 13:12:55	18376.486944	149.695296	none	NaN	NaN
111	3	48	43	bathroom	sun_apjevzvycyhuqghb.tif	18528.432707	18528.691017	18530.676592	14-Apr-2025 13:12:55	18376.486944	151.945763	none	NaN	NaN
111	3	49	40	bathroom	sun_aofnryafpsjimzsb.tif	18530.682260	18530.940625	18532.926456	14-Apr-2025 13:12:55	18376.486944	154.195316	none	NaN	NaN
111	3	50	41	bathroom	sun_aoybiabnpadelefl.tif	18532.932663	18533.190598	18535.176451	14-Apr-2025 13:12:55	18376.486944	156.445719	6	18536.746711	0.000000
111	3	51	27	bathroom	sun_ahcvzmoyaycdoftf.tif	18542.198856	18542.457180	18544.442932	14-Apr-2025 13:12:55	18376.486944	165.711912	none	NaN	NaN
111	3	52	36	bathroom	sun_ambriybtogmepttm.tif	18544.448811	18544.707162	18546.693209	14-Apr-2025 13:12:55	18376.486944	167.961867	none	NaN	NaN
111	3	53	37	bathroom	sun_amzlamotzwfkwjco.tif	18546.698767	18546.957148	18548.942924	14-Apr-2025 13:12:55	18376.486944	170.211823	none	NaN	NaN
111	3	54	14	bathroom	sun_abapwbhyhkfixyex.tif	18548.948778	18549.207125	18551.192617	14-Apr-2025 13:12:55	18376.486944	172.461834	none	NaN	NaN
111	3	55	40	bathroom	sun_aofnryafpsjimzsb.tif	18551.198757	18551.457106	18553.443416	14-Apr-2025 13:12:55	18376.486944	174.711813	none	NaN	NaN
111	3	56	41	bathroom	sun_aoybiabnpadelefl.tif	18553.448711	18553.707090	18555.693103	14-Apr-2025 13:12:55	18376.486944	176.961767	none	NaN	NaN
111	3	57	39	bathroom	sun_anryaplzeujmzfkd.tif	18555.698693	18555.957079	18557.942776	14-Apr-2025 13:12:55	18376.486944	179.211749	none	NaN	NaN
111	3	58	43	bathroom	sun_apjevzvycyhuqghb.tif	18557.948724	18558.207054	18560.193023	14-Apr-2025 13:12:55	18376.486944	181.461780	none	NaN	NaN
111	3	59	60	bathroom	sun_azqyogdvyhahyram.tif	18560.198703	18560.457036	18562.442710	14-Apr-2025 13:12:55	18376.486944	183.711759	none	NaN	NaN
111	3	60	38	bathroom	sun_anhioqovhscjqqwb.tif	18562.449010	18562.707016	18564.693648	14-Apr-2025 13:12:55	18376.486944	185.962066	none	NaN	NaN
111	3	61	12	bathroom	sun_aapitsgbtktqubfy.tif	18564.707001	18564.965328	18566.951704	14-Apr-2025 13:12:55	18376.486944	188.220057	none	NaN	NaN
111	3	62	11	bathroom	labelme_sfxiulhjbhlyiyt.tif	18566.956979	18567.215318	18569.200994	14-Apr-2025 13:12:55	18376.486944	190.470035	none	NaN	NaN
111	3	63	30	bathroom	sun_ajlawzvmubibwbpy.tif	18569.206856	18569.465234	18571.450695	14-Apr-2025 13:12:55	18376.486944	192.719913	none	NaN	NaN
111	3	64	28	bathroom	sun_ahijqszoswveeyji.tif	18571.457411	18571.715292	18573.701227	14-Apr-2025 13:12:55	18376.486944	194.970467	none	NaN	NaN
111	3	65	48	bathroom	sun_aqrpegblszgcoujh.tif	18573.706902	18573.965641	18575.951308	14-Apr-2025 13:12:55	18376.486944	197.219958	none	NaN	NaN
111	3	66	25	bathroom	sun_agyqfjcfkdcydepw.tif	18575.957383	18576.215712	18578.201570	14-Apr-2025 13:12:55	18376.486944	199.470439	5	18579.847917	0.000000
111	3	67	23	bathroom	sun_aghyqhbptboemmoq.tif	18585.231809	18585.490184	18587.475983	14-Apr-2025 13:12:55	18376.486944	208.744865	none	NaN	NaN
111	3	68	16	bathroom	sun_acduarbnmmoglmiv.tif	18587.482253	18587.740535	18589.726307	14-Apr-2025 13:12:55	18376.486944	210.995309	5	18590.667611	1.000000
111	3	69	58	bathroom	sun_axxbkopsgyouuebh.tif	18596.756739	18597.015555	18599.001178	14-Apr-2025 13:12:55	18376.486944	220.269795	none	NaN	NaN
111	3	70	21	bathroom	sun_aggnnqpdorgxpvce.tif	18599.006695	18599.265688	18601.250753	14-Apr-2025 13:12:55	18376.486944	222.519751	5	18602.535647	0.000000
111	3	71	26	bathroom	sun_ahaulkltgpkeeemi.tif	18608.273322	18608.531435	18610.517580	14-Apr-2025 13:12:55	18376.486944	231.786378	none	NaN	NaN
111	3	72	34	bathroom	sun_alkosphxlxwjwgjd.tif	18610.523166	18610.781544	18612.767062	14-Apr-2025 13:12:55	18376.486944	234.036222	none	NaN	NaN
111	3	73	52	bathroom	sun_aunuadmjocsddsrl.tif	18612.773214	18613.031571	18615.017466	14-Apr-2025 13:12:55	18376.486944	236.286270	6	18616.819777	1.000000
111	3	74	15	bathroom	sun_abjtwfukuwddzted.tif	18622.040238	18622.298083	18624.284203	14-Apr-2025 13:12:55	18376.486944	245.553294	none	NaN	NaN
111	3	75	13	bathroom	sun_aavhrsfjbserjtht.tif	18624.289749	18624.547971	18626.533796	14-Apr-2025 13:12:55	18376.486944	247.802805	none	NaN	NaN
111	3	76	46	bathroom	sun_apmqjbnwghzuhhzh.tif	18626.548045	18626.806382	18628.792271	14-Apr-2025 13:12:55	18376.486944	250.061101	none	NaN	NaN
111	3	77	59	bathroom	sun_axyrejkiiaqiurjk.tif	18628.806422	18629.064700	18631.050337	14-Apr-2025 13:12:55	18376.486944	252.319478	none	NaN	NaN
111	3	78	42	bathroom	sun_apeeialkgkuxddgh.tif	18631.056833	18631.315177	18633.300918	14-Apr-2025 13:12:55	18376.486944	254.569889	6	18634.745088	0.000000
111	3	79	24	bathroom	sun_agrwbmhcpmfuwmsg.tif	18640.323018	18640.581408	18642.567671	14-Apr-2025 13:12:55	18376.486944	263.836074	none	NaN	NaN
111	3	80	35	bathroom	sun_alotolagknyrgtsk.tif	18642.573042	18642.831857	18644.816879	14-Apr-2025 13:12:55	18376.486944	266.086098	none	NaN	NaN
111	3	81	57	bathroom	sun_axldvoqbuvuggfmq.tif	18644.823013	18645.081354	18647.067853	14-Apr-2025 13:12:55	18376.486944	268.336069	none	NaN	NaN
111	3	82	32	bathroom	sun_aleqenyvunhactkl.tif	18647.081318	18647.340052	18649.325634	14-Apr-2025 13:12:55	18376.486944	270.594374	none	NaN	NaN
111	3	83	55	bathroom	sun_avhrdrntsqrjzccq.tif	18649.339657	18649.597965	18651.584046	14-Apr-2025 13:12:55	18376.486944	272.852713	none	NaN	NaN
111	3	84	22	bathroom	sun_agguqiubmwhqqunb.tif	18651.589623	18651.848252	18653.834274	14-Apr-2025 13:12:55	18376.486944	275.102679	none	NaN	NaN
111	3	85	45	bathroom	sun_apkxzenqapsujocq.tif	18653.839565	18654.097996	18656.083358	14-Apr-2025 13:12:55	18376.486944	277.352621	5	18657.664483	1.000000
111	3	86	20	bathroom	sun_afcoljnjfoxjtgja.tif	18663.123068	18663.381212	18665.366911	14-Apr-2025 13:12:55	18376.486944	286.636124	none	NaN	NaN
111	3	87	19	bathroom	sun_aclfzgynxzxlbepz.tif	18665.372783	18665.631178	18667.616891	14-Apr-2025 13:12:55	18376.486944	288.885840	none	NaN	NaN
111	3	88	31	bathroom	sun_akiytfaagpdsphgz.tif	18667.631086	18667.889346	18669.875354	14-Apr-2025 13:12:55	18376.486944	291.144142	none	NaN	NaN
111	3	89	47	bathroom	sun_apynckhmoftszqoq.tif	18669.881095	18670.139377	18672.125640	14-Apr-2025 13:12:55	18376.486944	293.394151	none	NaN	NaN
111	3	90	17	bathroom	sun_acegryoqftbzowsg.tif	18672.139447	18672.397689	18674.383398	14-Apr-2025 13:12:55	18376.486944	295.652503	6	18676.370018	1.000000
111	3	91	33	bathroom	sun_aljolscmmzydegqp.tif	18681.405871	18681.664272	18683.650525	14-Apr-2025 13:12:55	18376.486944	304.918927	none	NaN	NaN
111	3	92	51	bathroom	sun_atstyziqcmkahyxk.tif	18683.664258	18683.922646	18685.908478	14-Apr-2025 13:12:55	18376.486944	307.177314	none	NaN	NaN
111	3	93	54	bathroom	sun_auzqhkafidnkrwmo.tif	18685.914282	18686.172512	18688.158153	14-Apr-2025 13:12:55	18376.486944	309.427338	5	18690.007074	1.000000
111	3	94	18	bathroom	sun_acgyywnybuveqsro.tif	18695.181312	18695.439659	18697.425735	14-Apr-2025 13:12:55	18376.486944	318.694369	none	NaN	NaN
111	3	95	50	bathroom	sun_aspsyogrekjtfozg.tif	18697.431294	18697.689643	18699.675751	14-Apr-2025 13:12:55	18376.486944	320.944350	none	NaN	NaN
111	3	96	53	bathroom	sun_ausgutylgojavyoq.tif	18699.681157	18699.939246	18701.925161	14-Apr-2025 13:12:55	18376.486944	323.194213	none	NaN	NaN
111	3	97	56	bathroom	sun_awnqiikzaispgmwo.tif	18701.931209	18702.189234	18704.175306	14-Apr-2025 13:12:55	18376.486944	325.444266	none	NaN	NaN
111	3	98	49	bathroom	sun_asfwthctfqerjvxr.tif	18704.180831	18704.439570	18706.425347	14-Apr-2025 13:12:55	18376.486944	327.693887	none	NaN	NaN
111	3	99	44	bathroom	sun_apkruvsevgegsdwp.tif	18706.431148	18706.689567	18708.674999	14-Apr-2025 13:12:55	18376.486944	329.944204	none	NaN	NaN
111	3	100	29	bathroom	sun_ahqjwnzgolcaoidx.tif	18708.681196	18708.939545	18710.925847	14-Apr-2025 13:12:55	18376.486944	332.194252	none	NaN	NaN
