subject	run	trial	texture	category	image	trialOnset	itiOnset	trialEnd	triggerDate	triggerTimeStamp	Onsets	responseKey	responseTime	accuracy
111	6	1	14	kitchen	sun_aadbddgrdsjugojn.tif	20036.295691	20036.554152	20038.539693	14-Apr-2025 13:40:31	20032.269429	4.026263	none	NaN	NaN
111	6	2	31	kitchen	sun_aehawpgmrlhlvcow.tif	20038.545363	20038.803701	20040.789184	14-Apr-2025 13:40:31	20032.269429	6.275934	5	20042.097195	1.000000
111	6	3	58	kitchen	sun_aymvwlarqodbwuoc.tif	20047.820349	20048.078668	20050.064462	14-Apr-2025 13:40:31	20032.269429	15.550920	none	NaN	NaN
111	6	4	15	kitchen	sun_aamedkxepzlwuxes.tif	20050.070329	20050.328656	20052.314190	14-Apr-2025 13:40:31	20032.269429	17.800900	none	NaN	NaN
111	6	5	37	kitchen	sun_agorklincwxrdtga.tif	20052.328643	20052.586979	20054.572833	14-Apr-2025 13:40:31	20032.269429	20.059214	none	NaN	NaN
111	6	6	40	kitchen	sun_ahdycvpopffkzzsu.tif	20054.578604	20054.836943	20056.823092	14-Apr-2025 13:40:31	20032.269429	22.309175	none	NaN	NaN
111	6	7	49	kitchen	sun_akcjzhbbjlbogpdi.tif	20056.828610	20057.086943	20059.072874	14-Apr-2025 13:40:31	20032.269429	24.559181	5	20060.476345	0.000000
111	6	8	43	kitchen	sun_ahspylgoovwmwvgk.tif	20066.095211	20066.353481	20068.339209	14-Apr-2025 13:40:31	20032.269429	33.825782	none	NaN	NaN
111	6	9	12	kitchen	labelme_kxvouciolcpqplr.tif	20068.345192	20068.603515	20070.589527	14-Apr-2025 13:40:31	20032.269429	36.075763	none	NaN	NaN
111	6	10	19	kitchen	sun_abdenxonkemggwsq.tif	20070.595517	20070.853887	20072.839752	14-Apr-2025 13:40:31	20032.269429	38.326088	none	NaN	NaN
111	6	11	48	kitchen	sun_akchetnepxlcxhsu.tif	20072.853502	20073.112200	20075.097989	14-Apr-2025 13:40:31	20032.269429	40.584073	5	20075.949324	0.000000
111	6	12	56	kitchen	sun_awcpdzzznmweyyhv.tif	20082.128773	20082.387126	20084.373359	14-Apr-2025 13:40:31	20032.269429	49.859344	none	NaN	NaN
111	6	13	59	kitchen	sun_aypmqwcualkenuoe.tif	20084.378795	20084.636729	20086.623393	14-Apr-2025 13:40:31	20032.269429	52.109366	none	NaN	NaN
111	6	14	50	kitchen	sun_amjjdeyrggfqgmom.tif	20086.628317	20086.887094	20088.872168	14-Apr-2025 13:40:31	20032.269429	54.358888	none	NaN	NaN
111	6	15	39	kitchen	sun_agzzivivdpnawacl.tif	20088.878740	20089.136709	20091.122977	14-Apr-2025 13:40:31	20032.269429	56.609311	none	NaN	NaN
111	6	16	53	kitchen	sun_aunzlwrbjumxhwdj.tif	20091.128288	20091.386686	20093.372252	14-Apr-2025 13:40:31	20032.269429	58.858860	none	NaN	NaN
111	6	17	28	kitchen	sun_adgqasybjyktddhj.tif	20093.378576	20093.637045	20095.622633	14-Apr-2025 13:40:31	20032.269429	61.109147	5	20096.516387	0.000000
111	6	18	18	kitchen	sun_aaxxjlsuzvqlgylf.tif	20102.645065	20102.903261	20104.889530	14-Apr-2025 13:40:31	20032.269429	70.375636	none	NaN	NaN
111	6	19	21	kitchen	sun_abftihopvusyfakt.tif	20104.903244	20105.161566	20107.147839	14-Apr-2025 13:40:31	20032.269429	72.633815	none	NaN	NaN
111	6	20	55	kitchen	sun_avszsnwsbuqfgzbn.tif	20107.161521	20107.419889	20109.405602	14-Apr-2025 13:40:31	20032.269429	74.892092	5	20110.685493	1.000000
111	6	21	23	kitchen	sun_abrcnpqqhmjwekyf.tif	20116.428148	20116.686484	20118.672507	14-Apr-2025 13:40:31	20032.269429	84.158719	none	NaN	NaN
111	6	22	17	kitchen	sun_aarfiyshqohlwkmo.tif	20118.678094	20118.936464	20120.922187	14-Apr-2025 13:40:31	20032.269429	86.408665	none	NaN	NaN
111	6	23	36	kitchen	sun_aggjlwcdjsjcaemh.tif	20120.928106	20121.186446	20123.172038	14-Apr-2025 13:40:31	20032.269429	88.658677	none	NaN	NaN
111	6	24	24	kitchen	sun_acfmftudsenhrfhy.tif	20123.178084	20123.436436	20125.422466	14-Apr-2025 13:40:31	20032.269429	90.908655	none	NaN	NaN
111	6	25	16	kitchen	sun_aapllqyqlykszopd.tif	20125.436414	20125.694745	20127.680638	14-Apr-2025 13:40:31	20032.269429	93.166985	none	NaN	NaN
111	6	26	45	kitchen	sun_aixorpehvfykdynp.tif	20127.686396	20127.944708	20129.930349	14-Apr-2025 13:40:31	20032.269429	95.416967	none	NaN	NaN
111	6	27	20	kitchen	sun_abdxkyyxwfskuaqb.tif	20129.936363	20130.195087	20132.180618	14-Apr-2025 13:40:31	20032.269429	97.666934	none	NaN	NaN
111	6	28	25	kitchen	sun_acgtpgfybqjmzeyw.tif	20132.195201	20132.453410	20134.439418	14-Apr-2025 13:40:31	20032.269429	99.925772	none	NaN	NaN
111	6	29	44	kitchen	sun_ahywdevtimnqcsln.tif	20134.453391	20134.711724	20136.697843	14-Apr-2025 13:40:31	20032.269429	102.183962	none	NaN	NaN
111	6	30	35	kitchen	sun_afuyedyxivkhecmu.tif	20136.711709	20136.970043	20138.955964	14-Apr-2025 13:40:31	20032.269429	104.442280	5	20140.029115	0.000000
111	6	31	57	kitchen	sun_axyyrmzcupyhlivc.tif	20145.978368	20146.236757	20148.222546	14-Apr-2025 13:40:31	20032.269429	113.708939	none	NaN	NaN
111	6	32	41	kitchen	sun_ahljzhgcdpomplvg.tif	20148.236230	20148.494946	20150.480823	14-Apr-2025 13:40:31	20032.269429	115.966801	none	NaN	NaN
111	6	33	46	kitchen	sun_ajcbwwvdlsvjyzje.tif	20150.486548	20150.744924	20152.730869	14-Apr-2025 13:40:31	20032.269429	118.217119	none	NaN	NaN
111	6	34	32	kitchen	sun_aenotlpyftoioydp.tif	20152.736570	20152.995023	20154.980874	14-Apr-2025 13:40:31	20032.269429	120.467141	none	NaN	NaN
111	6	35	52	kitchen	sun_auaiucuqpdausiva.tif	20154.986147	20155.245012	20157.230231	14-Apr-2025 13:40:31	20032.269429	122.716719	none	NaN	NaN
111	6	36	22	kitchen	sun_abpwyqmlzafvklqo.tif	20157.236426	20157.494503	20159.480227	14-Apr-2025 13:40:31	20032.269429	124.966997	none	NaN	NaN
111	6	37	34	kitchen	sun_aexklacwqwezaorf.tif	20159.486511	20159.744497	20161.730476	14-Apr-2025 13:40:31	20032.269429	127.217082	none	NaN	NaN
111	6	38	51	kitchen	sun_aqeaevwwwjoqhzvl.tif	20161.744468	20162.002673	20163.988836	14-Apr-2025 13:40:31	20032.269429	129.475039	6	20165.363192	1.000000
111	6	39	60	kitchen	sun_azmutvzbxypaceni.tif	20171.019170	20171.277709	20173.263585	14-Apr-2025 13:40:31	20032.269429	138.749742	none	NaN	NaN
111	6	40	33	kitchen	sun_aeqdocilnnpuvuhx.tif	20173.269317	20173.527662	20175.513151	14-Apr-2025 13:40:31	20032.269429	140.999888	6	20176.897142	1.000000
111	6	41	27	kitchen	sun_acxkpeoqbwcxfvip.tif	20182.535981	20182.794082	20184.780314	14-Apr-2025 13:40:31	20032.269429	150.266552	none	NaN	NaN
111	6	42	13	kitchen	labelme_rykdqxenmhulbdn.tif	20184.785849	20185.044192	20187.030111	14-Apr-2025 13:40:31	20032.269429	152.516420	6	20188.491192	0.000000
111	6	43	30	kitchen	sun_aegoxogugdkwpmpj.tif	20194.060831	20194.319223	20196.304716	14-Apr-2025 13:40:31	20032.269429	161.791402	none	NaN	NaN
111	6	44	29	kitchen	sun_admlmbcdswaszruo.tif	20196.310833	20196.569668	20198.555158	14-Apr-2025 13:40:31	20032.269429	164.041404	none	NaN	NaN
111	6	45	11	kitchen	labelme_brsyyvweiuaazfr.tif	20198.560788	20198.819683	20200.804573	14-Apr-2025 13:40:31	20032.269429	166.291359	none	NaN	NaN
111	6	46	47	kitchen	sun_ajkqhtgcbgpcwrwn.tif	20200.811202	20201.069548	20203.055243	14-Apr-2025 13:40:31	20032.269429	168.541773	none	NaN	NaN
111	6	47	38	kitchen	sun_agubuxuukhzyzpdp.tif	20203.060786	20203.319146	20205.305365	14-Apr-2025 13:40:31	20032.269429	170.791357	none	NaN	NaN
111	6	48	54	kitchen	sun_auticobqsbwgoppi.tif	20205.311138	20205.569132	20207.555885	14-Apr-2025 13:40:31	20032.269429	173.041709	none	NaN	NaN
111	6	49	26	kitchen	sun_acwjdupvyjsugpay.tif	20207.569108	20207.827922	20209.813150	14-Apr-2025 13:40:31	20032.269429	175.299680	5	20211.150400	1.000000
111	6	50	42	kitchen	sun_ahpczsiumwwocjkv.tif	20216.844034	20217.102371	20219.088126	14-Apr-2025 13:40:31	20032.269429	184.574605	none	NaN	NaN
111	6	51	55	kitchen	sun_avszsnwsbuqfgzbn.tif	20219.094360	20219.352835	20221.338233	14-Apr-2025 13:40:31	20032.269429	186.824931	none	NaN	NaN
111	6	52	42	kitchen	sun_ahpczsiumwwocjkv.tif	20221.343967	20221.602331	20223.588298	14-Apr-2025 13:40:31	20032.269429	189.074538	none	NaN	NaN
111	6	53	33	kitchen	sun_aeqdocilnnpuvuhx.tif	20223.593990	20223.852308	20225.838136	14-Apr-2025 13:40:31	20032.269429	191.324561	5	20227.244639	1.000000
111	6	54	44	kitchen	sun_ahywdevtimnqcsln.tif	20232.860407	20233.118910	20235.104541	14-Apr-2025 13:40:31	20032.269429	200.590978	none	NaN	NaN
111	6	55	51	kitchen	sun_aqeaevwwwjoqhzvl.tif	20235.110557	20235.368899	20237.354911	14-Apr-2025 13:40:31	20032.269429	202.841128	none	NaN	NaN
111	6	56	31	kitchen	sun_aehawpgmrlhlvcow.tif	20237.360521	20237.618882	20239.604977	14-Apr-2025 13:40:31	20032.269429	205.091092	none	NaN	NaN
111	6	57	37	kitchen	sun_agorklincwxrdtga.tif	20239.618866	20239.877130	20241.862701	14-Apr-2025 13:40:31	20032.269429	207.349437	none	NaN	NaN
111	6	58	39	kitchen	sun_agzzivivdpnawacl.tif	20241.868834	20242.127175	20244.113045	14-Apr-2025 13:40:31	20032.269429	209.599405	none	NaN	NaN
111	6	59	24	kitchen	sun_acfmftudsenhrfhy.tif	20244.118790	20244.377148	20246.362923	14-Apr-2025 13:40:31	20032.269429	211.849361	none	NaN	NaN
111	6	60	17	kitchen	sun_aarfiyshqohlwkmo.tif	20246.377131	20246.635470	20248.621383	14-Apr-2025 13:40:31	20032.269429	214.107702	none	NaN	NaN
111	6	61	13	kitchen	labelme_rykdqxenmhulbdn.tif	20248.635457	20248.893780	20250.879555	14-Apr-2025 13:40:31	20032.269429	216.366029	none	NaN	NaN
111	6	62	34	kitchen	sun_aexklacwqwezaorf.tif	20250.885444	20251.144245	20253.129991	14-Apr-2025 13:40:31	20032.269429	218.616016	none	NaN	NaN
111	6	63	53	kitchen	sun_aunzlwrbjumxhwdj.tif	20253.135378	20253.394216	20255.379760	14-Apr-2025 13:40:31	20032.269429	220.865949	5	20257.825997	1.000000
111	6	64	41	kitchen	sun_ahljzhgcdpomplvg.tif	20262.410346	20262.669056	20264.654405	14-Apr-2025 13:40:31	20032.269429	230.140917	none	NaN	NaN
111	6	65	12	kitchen	labelme_kxvouciolcpqplr.tif	20264.660318	20264.918662	20266.904810	14-Apr-2025 13:40:31	20032.269429	232.390889	none	NaN	NaN
111	6	66	56	kitchen	sun_awcpdzzznmweyyhv.tif	20266.910739	20267.169122	20269.155303	14-Apr-2025 13:40:31	20032.269429	234.641310	6	20270.720143	0.000000
111	6	67	18	kitchen	sun_aaxxjlsuzvqlgylf.tif	20276.185233	20276.443954	20278.429033	14-Apr-2025 13:40:31	20032.269429	243.915804	none	NaN	NaN
111	6	68	15	kitchen	sun_aamedkxepzlwuxes.tif	20278.435587	20278.693940	20280.680242	14-Apr-2025 13:40:31	20032.269429	246.166158	none	NaN	NaN
111	6	69	46	kitchen	sun_ajcbwwvdlsvjyzje.tif	20280.693536	20280.951818	20282.937615	14-Apr-2025 13:40:31	20032.269429	248.424107	none	NaN	NaN
111	6	70	60	kitchen	sun_azmutvzbxypaceni.tif	20282.943510	20283.201852	20285.187810	14-Apr-2025 13:40:31	20032.269429	250.674081	none	NaN	NaN
111	6	71	27	kitchen	sun_acxkpeoqbwcxfvip.tif	20285.193511	20285.451830	20287.438016	14-Apr-2025 13:40:31	20032.269429	252.924082	none	NaN	NaN
111	6	72	36	kitchen	sun_aggjlwcdjsjcaemh.tif	20287.443446	20287.701808	20289.687975	14-Apr-2025 13:40:31	20032.269429	255.174017	none	NaN	NaN
111	6	73	14	kitchen	sun_aadbddgrdsjugojn.tif	20289.701796	20289.960124	20291.946312	14-Apr-2025 13:40:31	20032.269429	257.432367	none	NaN	NaN
111	6	74	26	kitchen	sun_acwjdupvyjsugpay.tif	20291.951776	20292.210111	20294.196376	14-Apr-2025 13:40:31	20032.269429	259.682347	none	NaN	NaN
111	6	75	54	kitchen	sun_auticobqsbwgoppi.tif	20294.201709	20294.460105	20296.445589	14-Apr-2025 13:40:31	20032.269429	261.932280	none	NaN	NaN
111	6	76	45	kitchen	sun_aixorpehvfykdynp.tif	20296.460079	20296.718414	20298.704474	14-Apr-2025 13:40:31	20032.269429	264.190651	none	NaN	NaN
111	6	77	59	kitchen	sun_aypmqwcualkenuoe.tif	20298.710054	20298.968421	20300.954527	14-Apr-2025 13:40:31	20032.269429	266.440625	none	NaN	NaN
111	6	78	58	kitchen	sun_aymvwlarqodbwuoc.tif	20300.960007	20301.218288	20303.204223	14-Apr-2025 13:40:31	20032.269429	268.690578	none	NaN	NaN
111	6	79	50	kitchen	sun_amjjdeyrggfqgmom.tif	20303.218185	20303.476542	20305.462224	14-Apr-2025 13:40:31	20032.269429	270.948756	none	NaN	NaN
111	6	80	49	kitchen	sun_akcjzhbbjlbogpdi.tif	20305.468268	20305.726674	20307.712397	14-Apr-2025 13:40:31	20032.269429	273.198839	none	NaN	NaN
111	6	81	20	kitchen	sun_abdxkyyxwfskuaqb.tif	20307.726537	20307.984825	20309.970863	14-Apr-2025 13:40:31	20032.269429	275.457108	none	NaN	NaN
111	6	82	25	kitchen	sun_acgtpgfybqjmzeyw.tif	20309.976548	20310.235446	20312.220678	14-Apr-2025 13:40:31	20032.269429	277.707119	none	NaN	NaN
111	6	83	40	kitchen	sun_ahdycvpopffkzzsu.tif	20312.234969	20312.493711	20314.479554	14-Apr-2025 13:40:31	20032.269429	279.965540	none	NaN	NaN
111	6	84	47	kitchen	sun_ajkqhtgcbgpcwrwn.tif	20314.493278	20314.752076	20316.737267	14-Apr-2025 13:40:31	20032.269429	282.223849	5	20318.668883	0.000000
111	6	85	38	kitchen	sun_agubuxuukhzyzpdp.tif	20323.751514	20324.010337	20325.995723	14-Apr-2025 13:40:31	20032.269429	291.482085	none	NaN	NaN
111	6	86	30	kitchen	sun_aegoxogugdkwpmpj.tif	20326.001480	20326.260279	20328.245839	14-Apr-2025 13:40:31	20032.269429	293.732052	none	NaN	NaN
111	6	87	32	kitchen	sun_aenotlpyftoioydp.tif	20328.251480	20328.510215	20330.495491	14-Apr-2025 13:40:31	20032.269429	295.982051	none	NaN	NaN
111	6	88	52	kitchen	sun_auaiucuqpdausiva.tif	20330.501481	20330.760197	20332.745393	14-Apr-2025 13:40:31	20032.269429	298.232052	none	NaN	NaN
111	6	89	16	kitchen	sun_aapllqyqlykszopd.tif	20332.751404	20333.010159	20334.995300	14-Apr-2025 13:40:31	20032.269429	300.481975	none	NaN	NaN
111	6	90	28	kitchen	sun_adgqasybjyktddhj.tif	20335.001720	20335.260255	20337.246314	14-Apr-2025 13:40:31	20032.269429	302.732291	none	NaN	NaN
111	6	91	11	kitchen	labelme_brsyyvweiuaazfr.tif	20337.251349	20337.510247	20339.495427	14-Apr-2025 13:40:31	20032.269429	304.981920	none	NaN	NaN
111	6	92	29	kitchen	sun_admlmbcdswaszruo.tif	20339.501709	20339.760245	20341.746253	14-Apr-2025 13:40:31	20032.269429	307.232280	none	NaN	NaN
111	6	93	23	kitchen	sun_abrcnpqqhmjwekyf.tif	20341.751299	20342.009721	20343.995610	14-Apr-2025 13:40:31	20032.269429	309.481870	none	NaN	NaN
111	6	94	19	kitchen	sun_abdenxonkemggwsq.tif	20344.001334	20344.259705	20346.245862	14-Apr-2025 13:40:31	20032.269429	311.731905	none	NaN	NaN
111	6	95	48	kitchen	sun_akchetnepxlcxhsu.tif	20346.251313	20346.509685	20348.495131	14-Apr-2025 13:40:31	20032.269429	313.981884	none	NaN	NaN
111	6	96	57	kitchen	sun_axyyrmzcupyhlivc.tif	20348.501318	20348.759671	20350.745796	14-Apr-2025 13:40:31	20032.269429	316.231889	none	NaN	NaN
111	6	97	21	kitchen	sun_abftihopvusyfakt.tif	20350.751291	20351.009651	20352.995565	14-Apr-2025 13:40:31	20032.269429	318.481862	none	NaN	NaN
111	6	98	35	kitchen	sun_afuyedyxivkhecmu.tif	20353.001270	20353.259638	20355.245573	14-Apr-2025 13:40:31	20032.269429	320.731841	none	NaN	NaN
111	6	99	43	kitchen	sun_ahspylgoovwmwvgk.tif	20355.251292	20355.509610	20357.495132	14-Apr-2025 13:40:31	20032.269429	322.981863	none	NaN	NaN
111	6	100	22	kitchen	sun_abpwyqmlzafvklqo.tif	20357.501253	20357.759603	20359.745296	14-Apr-2025 13:40:31	20032.269429	325.231824	5	20361.459008	1.000000
