subject	run	trial	texture	category	image	trialOnset	itiOnset	trialEnd	triggerDate	triggerTimeStamp	Onsets	responseKey	responseTime	accuracy
106	11	1	17	bathroom	sun_acegryoqftbzowsg.tif	23470.857477	23471.115803	23473.102024	17-Apr-2025 14:09:03	23466.830845	4.026633	none	NaN	NaN
106	11	2	12	bathroom	sun_aapitsgbtktqubfy.tif	23473.107401	23473.365782	23475.351671	17-Apr-2025 14:09:03	23466.830845	6.276556	none	NaN	NaN
106	11	3	27	bathroom	sun_ahcvzmoyaycdoftf.tif	23475.357434	23475.615791	23477.601912	17-Apr-2025 14:09:03	23466.830845	8.526589	none	NaN	NaN
106	11	4	39	bathroom	sun_anryaplzeujmzfkd.tif	23477.607376	23477.865750	23479.851705	17-Apr-2025 14:09:03	23466.830845	10.776531	none	NaN	NaN
106	11	5	51	bathroom	sun_atstyziqcmkahyxk.tif	23479.865730	23480.124070	23482.109711	17-Apr-2025 14:09:03	23466.830845	13.034885	none	NaN	NaN
106	11	6	53	bathroom	sun_ausgutylgojavyoq.tif	23482.115696	23482.374052	23484.360122	17-Apr-2025 14:09:03	23466.830845	15.284851	none	NaN	NaN
106	11	7	55	bathroom	sun_avhrdrntsqrjzccq.tif	23484.365671	23484.624037	23486.610126	17-Apr-2025 14:09:03	23466.830845	17.534826	none	NaN	NaN
106	11	8	36	bathroom	sun_ambriybtogmepttm.tif	23486.615652	23486.874015	23488.859746	17-Apr-2025 14:09:03	23466.830845	19.784807	none	NaN	NaN
106	11	9	22	bathroom	sun_agguqiubmwhqqunb.tif	23488.865661	23489.123998	23491.110254	17-Apr-2025 14:09:03	23466.830845	22.034816	none	NaN	NaN
106	11	10	35	bathroom	sun_alotolagknyrgtsk.tif	23491.115614	23491.374465	23493.359430	17-Apr-2025 14:09:03	23466.830845	24.284769	6	23494.408240	1.000000
106	11	11	28	bathroom	sun_ahijqszoswveeyji.tif	23500.390555	23500.649382	23502.634958	17-Apr-2025 14:09:03	23466.830845	33.559710	5	23503.139388	1.000000
106	11	12	30	bathroom	sun_ajlawzvmubibwbpy.tif	23509.665504	23509.924328	23511.909526	17-Apr-2025 14:09:03	23466.830845	42.834659	none	NaN	NaN
106	11	13	25	bathroom	sun_agyqfjcfkdcydepw.tif	23511.915810	23512.174072	23514.159855	17-Apr-2025 14:09:03	23466.830845	45.084965	none	NaN	NaN
106	11	14	11	bathroom	labelme_sfxiulhjbhlyiyt.tif	23514.165803	23514.424279	23516.410225	17-Apr-2025 14:09:03	23466.830845	47.334958	none	NaN	NaN
106	11	15	49	bathroom	sun_asfwthctfqerjvxr.tif	23516.415498	23516.674271	23518.659813	17-Apr-2025 14:09:03	23466.830845	49.584653	none	NaN	NaN
106	11	16	56	bathroom	sun_awnqiikzaispgmwo.tif	23518.665413	23518.924144	23520.909794	17-Apr-2025 14:09:03	23466.830845	51.834568	6	23521.711187	0.000000
106	11	17	29	bathroom	sun_ahqjwnzgolcaoidx.tif	23527.940208	23528.198686	23530.184696	17-Apr-2025 14:09:03	23466.830845	61.109363	none	NaN	NaN
106	11	18	34	bathroom	sun_alkosphxlxwjwgjd.tif	23530.190309	23530.448666	23532.434506	17-Apr-2025 14:09:03	23466.830845	63.359464	none	NaN	NaN
106	11	19	54	bathroom	sun_auzqhkafidnkrwmo.tif	23532.440264	23532.698656	23534.684265	17-Apr-2025 14:09:03	23466.830845	65.609419	none	NaN	NaN
106	11	20	48	bathroom	sun_aqrpegblszgcoujh.tif	23534.690307	23534.948631	23536.934128	17-Apr-2025 14:09:03	23466.830845	67.859462	none	NaN	NaN
106	11	21	33	bathroom	sun_aljolscmmzydegqp.tif	23536.940276	23537.198620	23539.184131	17-Apr-2025 14:09:03	23466.830845	70.109431	none	NaN	NaN
106	11	22	52	bathroom	sun_aunuadmjocsddsrl.tif	23539.190278	23539.448597	23541.434394	17-Apr-2025 14:09:03	23466.830845	72.359433	none	NaN	NaN
106	11	23	41	bathroom	sun_aoybiabnpadelefl.tif	23541.440185	23541.698579	23543.684805	17-Apr-2025 14:09:03	23466.830845	74.609340	none	NaN	NaN
106	11	24	15	bathroom	sun_abjtwfukuwddzted.tif	23543.690242	23543.948567	23545.934136	17-Apr-2025 14:09:03	23466.830845	76.859398	none	NaN	NaN
106	11	25	13	bathroom	sun_aavhrsfjbserjtht.tif	23545.940210	23546.198548	23548.184795	17-Apr-2025 14:09:03	23466.830845	79.109365	none	NaN	NaN
106	11	26	40	bathroom	sun_aofnryafpsjimzsb.tif	23548.190163	23548.448532	23550.434313	17-Apr-2025 14:09:03	23466.830845	81.359318	none	NaN	NaN
106	11	27	16	bathroom	sun_acduarbnmmoglmiv.tif	23550.440159	23550.698989	23552.684360	17-Apr-2025 14:09:03	23466.830845	83.609314	6	23553.654400	1.000000
106	11	28	18	bathroom	sun_acgyywnybuveqsro.tif	23559.715111	23559.973991	23561.959178	17-Apr-2025 14:09:03	23466.830845	92.884266	none	NaN	NaN
106	11	29	45	bathroom	sun_apkxzenqapsujocq.tif	23561.965467	23562.223856	23564.209861	17-Apr-2025 14:09:03	23466.830845	95.134622	6	23565.145094	1.000000
106	11	30	60	bathroom	sun_azqyogdvyhahyram.tif	23571.240443	23571.498940	23573.484527	17-Apr-2025 14:09:03	23466.830845	104.409598	none	NaN	NaN
106	11	31	38	bathroom	sun_anhioqovhscjqqwb.tif	23573.489968	23573.748815	23575.734238	17-Apr-2025 14:09:03	23466.830845	106.659123	none	NaN	NaN
106	11	32	44	bathroom	sun_apkruvsevgegsdwp.tif	23575.740243	23575.998333	23577.984363	17-Apr-2025 14:09:03	23466.830845	108.909398	none	NaN	NaN
106	11	33	26	bathroom	sun_ahaulkltgpkeeemi.tif	23577.989957	23578.248677	23580.233979	17-Apr-2025 14:09:03	23466.830845	111.159112	5	23580.982246	1.000000
106	11	34	37	bathroom	sun_amzlamotzwfkwjco.tif	23587.256560	23587.514890	23589.500895	17-Apr-2025 14:09:03	23466.830845	120.425715	none	NaN	NaN
106	11	35	43	bathroom	sun_apjevzvycyhuqghb.tif	23589.506537	23589.764874	23591.750958	17-Apr-2025 14:09:03	23466.830845	122.675692	none	NaN	NaN
106	11	36	14	bathroom	sun_abapwbhyhkfixyex.tif	23591.756433	23592.014855	23594.000996	17-Apr-2025 14:09:03	23466.830845	124.925588	none	NaN	NaN
106	11	37	21	bathroom	sun_aggnnqpdorgxpvce.tif	23594.014856	23594.273175	23596.259045	17-Apr-2025 14:09:03	23466.830845	127.184011	none	NaN	NaN
106	11	38	31	bathroom	sun_akiytfaagpdsphgz.tif	23596.264787	23596.523156	23598.509186	17-Apr-2025 14:09:03	23466.830845	129.433942	none	NaN	NaN
106	11	39	57	bathroom	sun_axldvoqbuvuggfmq.tif	23598.514758	23598.773143	23600.759295	17-Apr-2025 14:09:03	23466.830845	131.683913	none	NaN	NaN
106	11	40	59	bathroom	sun_axyrejkiiaqiurjk.tif	23600.764754	23601.023119	23603.008523	17-Apr-2025 14:09:03	23466.830845	133.933909	none	NaN	NaN
106	11	41	50	bathroom	sun_aspsyogrekjtfozg.tif	23603.014738	23603.273108	23605.259143	17-Apr-2025 14:09:03	23466.830845	136.183893	none	NaN	NaN
106	11	42	32	bathroom	sun_aleqenyvunhactkl.tif	23605.264763	23605.523085	23607.509335	17-Apr-2025 14:09:03	23466.830845	138.433918	none	NaN	NaN
106	11	43	42	bathroom	sun_apeeialkgkuxddgh.tif	23607.514670	23607.773068	23609.759088	17-Apr-2025 14:09:03	23466.830845	140.683825	5	23610.222216	1.000000
106	11	44	20	bathroom	sun_afcoljnjfoxjtgja.tif	23616.790129	23617.048424	23619.034087	17-Apr-2025 14:09:03	23466.830845	149.959284	none	NaN	NaN
106	11	45	24	bathroom	sun_agrwbmhcpmfuwmsg.tif	23619.039610	23619.298360	23621.284008	17-Apr-2025 14:09:03	23466.830845	152.208765	6	23622.137821	1.000000
106	11	46	23	bathroom	sun_aghyqhbptboemmoq.tif	23628.306216	23628.564584	23630.550241	17-Apr-2025 14:09:03	23466.830845	161.475371	6	23631.373326	1.000000
106	11	47	58	bathroom	sun_axxbkopsgyouuebh.tif	23637.572844	23637.831133	23639.817280	17-Apr-2025 14:09:03	23466.830845	170.741999	none	NaN	NaN
106	11	48	19	bathroom	sun_aclfzgynxzxlbepz.tif	23639.822776	23640.081143	23642.066903	17-Apr-2025 14:09:03	23466.830845	172.991931	none	NaN	NaN
106	11	49	46	bathroom	sun_apmqjbnwghzuhhzh.tif	23642.072749	23642.331128	23644.317102	17-Apr-2025 14:09:03	23466.830845	175.241904	none	NaN	NaN
106	11	50	47	bathroom	sun_apynckhmoftszqoq.tif	23644.322774	23644.581108	23646.567125	17-Apr-2025 14:09:03	23466.830845	177.491929	none	NaN	NaN
106	11	51	39	bathroom	sun_anryaplzeujmzfkd.tif	23646.572748	23646.831110	23648.817239	17-Apr-2025 14:09:03	23466.830845	179.741903	none	NaN	NaN
106	11	52	17	bathroom	sun_acegryoqftbzowsg.tif	23648.822699	23649.081071	23651.066669	17-Apr-2025 14:09:03	23466.830845	181.991854	none	NaN	NaN
106	11	53	16	bathroom	sun_acduarbnmmoglmiv.tif	23651.072725	23651.331056	23653.316505	17-Apr-2025 14:09:03	23466.830845	184.241880	6	23654.435574	1.000000
106	11	54	38	bathroom	sun_anhioqovhscjqqwb.tif	23660.339417	23660.597565	23662.583336	17-Apr-2025 14:09:03	23466.830845	193.508572	5	23663.786145	1.000000
106	11	55	13	bathroom	sun_aavhrsfjbserjtht.tif	23669.614137	23669.872406	23671.858228	17-Apr-2025 14:09:03	23466.830845	202.783292	none	NaN	NaN
106	11	56	46	bathroom	sun_apmqjbnwghzuhhzh.tif	23671.864206	23672.122941	23674.108242	17-Apr-2025 14:09:03	23466.830845	205.033361	none	NaN	NaN
106	11	57	53	bathroom	sun_ausgutylgojavyoq.tif	23674.122937	23674.381263	23676.367267	17-Apr-2025 14:09:03	23466.830845	207.292092	none	NaN	NaN
106	11	58	19	bathroom	sun_aclfzgynxzxlbepz.tif	23676.372486	23676.631246	23678.616970	17-Apr-2025 14:09:03	23466.830845	209.541641	none	NaN	NaN
106	11	59	57	bathroom	sun_axldvoqbuvuggfmq.tif	23678.622798	23678.881235	23680.867086	17-Apr-2025 14:09:03	23466.830845	211.791953	none	NaN	NaN
106	11	60	31	bathroom	sun_akiytfaagpdsphgz.tif	23680.872829	23681.131205	23683.117297	17-Apr-2025 14:09:03	23466.830845	214.041984	none	NaN	NaN
106	11	61	55	bathroom	sun_avhrdrntsqrjzccq.tif	23683.131190	23683.389153	23685.375559	17-Apr-2025 14:09:03	23466.830845	216.300345	none	NaN	NaN
106	11	62	34	bathroom	sun_alkosphxlxwjwgjd.tif	23685.380764	23685.639518	23687.625194	17-Apr-2025 14:09:03	23466.830845	218.549919	6	23688.452534	1.000000
106	11	63	24	bathroom	sun_agrwbmhcpmfuwmsg.tif	23694.656054	23694.914434	23696.899922	17-Apr-2025 14:09:03	23466.830845	227.825209	none	NaN	NaN
106	11	64	12	bathroom	sun_aapitsgbtktqubfy.tif	23696.905688	23697.164043	23699.149646	17-Apr-2025 14:09:03	23466.830845	230.074843	none	NaN	NaN
106	11	65	36	bathroom	sun_ambriybtogmepttm.tif	23699.155670	23699.414033	23701.400103	17-Apr-2025 14:09:03	23466.830845	232.324825	none	NaN	NaN
106	11	66	45	bathroom	sun_apkxzenqapsujocq.tif	23701.405536	23701.663996	23703.649872	17-Apr-2025 14:09:03	23466.830845	234.574691	none	NaN	NaN
106	11	67	23	bathroom	sun_aghyqhbptboemmoq.tif	23703.655620	23703.913983	23705.899493	17-Apr-2025 14:09:03	23466.830845	236.824775	none	NaN	NaN
106	11	68	44	bathroom	sun_apkruvsevgegsdwp.tif	23705.905579	23706.163848	23708.150187	17-Apr-2025 14:09:03	23466.830845	239.074735	none	NaN	NaN
106	11	69	14	bathroom	sun_abapwbhyhkfixyex.tif	23708.163961	23708.422201	23710.408187	17-Apr-2025 14:09:03	23466.830845	241.333116	none	NaN	NaN
106	11	70	56	bathroom	sun_awnqiikzaispgmwo.tif	23710.413731	23710.672144	23712.657744	17-Apr-2025 14:09:03	23466.830845	243.582886	none	NaN	NaN
106	11	71	41	bathroom	sun_aoybiabnpadelefl.tif	23712.663950	23712.922152	23714.907847	17-Apr-2025 14:09:03	23466.830845	245.833105	none	NaN	NaN
106	11	72	37	bathroom	sun_amzlamotzwfkwjco.tif	23714.922200	23715.180437	23717.166501	17-Apr-2025 14:09:03	23466.830845	248.091355	5	23718.281233	1.000000
106	11	73	58	bathroom	sun_axxbkopsgyouuebh.tif	23724.196975	23724.455368	23726.441238	17-Apr-2025 14:09:03	23466.830845	257.366130	none	NaN	NaN
106	11	74	60	bathroom	sun_azqyogdvyhahyram.tif	23726.455475	23726.713733	23728.700637	17-Apr-2025 14:09:03	23466.830845	259.624630	none	NaN	NaN
106	11	75	35	bathroom	sun_alotolagknyrgtsk.tif	23728.713679	23728.972084	23730.957868	17-Apr-2025 14:09:03	23466.830845	261.882834	none	NaN	NaN
106	11	76	11	bathroom	labelme_sfxiulhjbhlyiyt.tif	23730.964113	23731.222488	23733.208711	17-Apr-2025 14:09:03	23466.830845	264.133268	none	NaN	NaN
106	11	77	42	bathroom	sun_apeeialkgkuxddgh.tif	23733.213687	23733.472469	23735.458151	17-Apr-2025 14:09:03	23466.830845	266.382842	none	NaN	NaN
106	11	78	29	bathroom	sun_ahqjwnzgolcaoidx.tif	23735.463717	23735.722079	23737.707888	17-Apr-2025 14:09:03	23466.830845	268.632872	5	23738.569001	0.000000
106	11	79	51	bathroom	sun_atstyziqcmkahyxk.tif	23744.730289	23744.989039	23746.974223	17-Apr-2025 14:09:03	23466.830845	277.899444	none	NaN	NaN
106	11	80	27	bathroom	sun_ahcvzmoyaycdoftf.tif	23746.980663	23747.239059	23749.224815	17-Apr-2025 14:09:03	23466.830845	280.149818	none	NaN	NaN
106	11	81	59	bathroom	sun_axyrejkiiaqiurjk.tif	23749.230624	23749.489002	23751.474391	17-Apr-2025 14:09:03	23466.830845	282.399779	none	NaN	NaN
106	11	82	52	bathroom	sun_aunuadmjocsddsrl.tif	23751.480642	23751.738617	23753.724506	17-Apr-2025 14:09:03	23466.830845	284.649797	none	NaN	NaN
106	11	83	20	bathroom	sun_afcoljnjfoxjtgja.tif	23753.730591	23753.988975	23755.974948	17-Apr-2025 14:09:03	23466.830845	286.899746	none	NaN	NaN
106	11	84	15	bathroom	sun_abjtwfukuwddzted.tif	23755.988961	23756.247284	23758.233370	17-Apr-2025 14:09:03	23466.830845	289.158116	none	NaN	NaN
106	11	85	49	bathroom	sun_asfwthctfqerjvxr.tif	23758.247276	23758.505601	23760.491361	17-Apr-2025 14:09:03	23466.830845	291.416431	none	NaN	NaN
106	11	86	21	bathroom	sun_aggnnqpdorgxpvce.tif	23760.496858	23760.755085	23762.740913	17-Apr-2025 14:09:03	23466.830845	293.666013	none	NaN	NaN
106	11	87	32	bathroom	sun_aleqenyvunhactkl.tif	23762.746824	23763.005179	23764.991265	17-Apr-2025 14:09:03	23466.830845	295.915980	none	NaN	NaN
106	11	88	43	bathroom	sun_apjevzvycyhuqghb.tif	23765.005024	23765.263363	23767.249532	17-Apr-2025 14:09:03	23466.830845	298.174179	none	NaN	NaN
106	11	89	40	bathroom	sun_aofnryafpsjimzsb.tif	23767.255057	23767.513439	23769.499343	17-Apr-2025 14:09:03	23466.830845	300.424212	none	NaN	NaN
106	11	90	26	bathroom	sun_ahaulkltgpkeeemi.tif	23769.504990	23769.763328	23771.749367	17-Apr-2025 14:09:03	23466.830845	302.674145	none	NaN	NaN
106	11	91	54	bathroom	sun_auzqhkafidnkrwmo.tif	23771.763313	23772.021779	23774.007670	17-Apr-2025 14:09:03	23466.830845	304.932468	none	NaN	NaN
106	11	92	18	bathroom	sun_acgyywnybuveqsro.tif	23774.021653	23774.280090	23776.266107	17-Apr-2025 14:09:03	23466.830845	307.190808	none	NaN	NaN
106	11	93	47	bathroom	sun_apynckhmoftszqoq.tif	23776.280019	23776.538281	23778.524303	17-Apr-2025 14:09:03	23466.830845	309.449174	none	NaN	NaN
106	11	94	25	bathroom	sun_agyqfjcfkdcydepw.tif	23778.529876	23778.788389	23780.773835	17-Apr-2025 14:09:03	23466.830845	311.699031	none	NaN	NaN
106	11	95	28	bathroom	sun_ahijqszoswveeyji.tif	23780.779928	23781.038250	23783.024284	17-Apr-2025 14:09:03	23466.830845	313.949083	none	NaN	NaN
106	11	96	48	bathroom	sun_aqrpegblszgcoujh.tif	23783.038339	23783.296674	23785.282877	17-Apr-2025 14:09:03	23466.830845	316.207494	none	NaN	NaN
106	11	97	50	bathroom	sun_aspsyogrekjtfozg.tif	23785.288319	23785.546585	23787.532444	17-Apr-2025 14:09:03	23466.830845	318.457474	5	23788.254337	1.000000
106	11	98	22	bathroom	sun_agguqiubmwhqqunb.tif	23794.554912	23794.813866	23796.799382	17-Apr-2025 14:09:03	23466.830845	327.724067	none	NaN	NaN
106	11	99	33	bathroom	sun_aljolscmmzydegqp.tif	23796.805392	23797.063263	23799.049190	17-Apr-2025 14:09:03	23466.830845	329.974547	none	NaN	NaN
106	11	100	30	bathroom	sun_ajlawzvmubibwbpy.tif	23799.055225	23799.313659	23801.299648	17-Apr-2025 14:09:03	23466.830845	332.224380	none	NaN	NaN
