subject	run	trial	texture	category	image	trialOnset	itiOnset	trialEnd	triggerDate	triggerTimeStamp	Onsets	responseKey	responseTime	accuracy
104	8	1	16	kitchen	sun_aapllqyqlykszopd.tif	33583.588633	33583.846927	33585.833172	17-Mar-2025 17:04:08	33579.563039	4.025594	none	NaN	NaN
104	8	2	41	kitchen	sun_ahljzhgcdpomplvg.tif	33585.838084	33586.096492	33588.083321	17-Mar-2025 17:04:08	33579.563039	6.275045	none	NaN	NaN
104	8	3	54	kitchen	sun_auticobqsbwgoppi.tif	33588.088492	33588.346468	33590.332663	17-Mar-2025 17:04:08	33579.563039	8.525454	none	NaN	NaN
104	8	4	59	kitchen	sun_aypmqwcualkenuoe.tif	33590.338058	33590.596809	33592.582182	17-Mar-2025 17:04:08	33579.563039	10.775020	none	NaN	NaN
104	8	5	31	kitchen	sun_aehawpgmrlhlvcow.tif	33592.596909	33592.855225	33594.841180	17-Mar-2025 17:04:08	33579.563039	13.033871	none	NaN	NaN
104	8	6	51	kitchen	sun_aqeaevwwwjoqhzvl.tif	33594.855221	33595.113081	33597.099456	17-Mar-2025 17:04:08	33579.563039	15.292182	none	NaN	NaN
104	8	7	35	kitchen	sun_afuyedyxivkhecmu.tif	33597.105095	33597.363533	33599.349579	17-Mar-2025 17:04:08	33579.563039	17.542057	none	NaN	NaN
104	8	8	33	kitchen	sun_aeqdocilnnpuvuhx.tif	33599.354680	33599.613577	33601.598466	17-Mar-2025 17:04:08	33579.563039	19.791641	none	NaN	NaN
104	8	9	30	kitchen	sun_aegoxogugdkwpmpj.tif	33601.604533	33601.862955	33603.848969	17-Mar-2025 17:04:08	33579.563039	22.041495	5	33605.358937	0.000000
104	8	10	36	kitchen	sun_aggjlwcdjsjcaemh.tif	33610.879575	33611.137776	33613.123546	17-Mar-2025 17:04:08	33579.563039	31.316537	none	NaN	NaN
104	8	11	15	kitchen	sun_aamedkxepzlwuxes.tif	33613.137757	33613.396082	33615.381745	17-Mar-2025 17:04:08	33579.563039	33.574718	none	NaN	NaN
104	8	12	48	kitchen	sun_akchetnepxlcxhsu.tif	33615.387802	33615.646090	33617.632041	17-Mar-2025 17:04:08	33579.563039	35.824763	none	NaN	NaN
104	8	13	27	kitchen	sun_acxkpeoqbwcxfvip.tif	33617.646075	33617.904376	33619.890568	17-Mar-2025 17:04:08	33579.563039	38.083037	5	33622.343058	1.000000
104	8	14	46	kitchen	sun_ajcbwwvdlsvjyzje.tif	33626.921145	33627.179312	33629.165567	17-Mar-2025 17:04:08	33579.563039	47.358106	none	NaN	NaN
104	8	15	34	kitchen	sun_aexklacwqwezaorf.tif	33629.179295	33629.437661	33631.423157	17-Mar-2025 17:04:08	33579.563039	49.616256	none	NaN	NaN
104	8	16	29	kitchen	sun_admlmbcdswaszruo.tif	33631.429425	33631.688374	33633.674006	17-Mar-2025 17:04:08	33579.563039	51.866386	none	NaN	NaN
104	8	17	39	kitchen	sun_agzzivivdpnawacl.tif	33633.679705	33633.938214	33635.924203	17-Mar-2025 17:04:08	33579.563039	54.116667	none	NaN	NaN
104	8	18	42	kitchen	sun_ahpczsiumwwocjkv.tif	33635.929706	33636.188159	33638.173811	17-Mar-2025 17:04:08	33579.563039	56.366668	none	NaN	NaN
104	8	19	43	kitchen	sun_ahspylgoovwmwvgk.tif	33638.179327	33638.437716	33640.423519	17-Mar-2025 17:04:08	33579.563039	58.616289	none	NaN	NaN
104	8	20	37	kitchen	sun_agorklincwxrdtga.tif	33640.429762	33640.687696	33642.673811	17-Mar-2025 17:04:08	33579.563039	60.866724	none	NaN	NaN
104	8	21	18	kitchen	sun_aaxxjlsuzvqlgylf.tif	33649.696307	33649.954254	33651.940345	17-Mar-2025 17:04:08	33579.563039	70.133269	none	NaN	NaN
104	8	22	26	kitchen	sun_acwjdupvyjsugpay.tif	33651.945923	33652.204632	33654.190402	17-Mar-2025 17:04:08	33579.563039	72.382885	none	NaN	NaN
104	8	23	17	kitchen	sun_aarfiyshqohlwkmo.tif	33654.196350	33654.454243	33656.440623	17-Mar-2025 17:04:08	33579.563039	74.633312	none	NaN	NaN
104	8	24	47	kitchen	sun_ajkqhtgcbgpcwrwn.tif	33663.470745	33663.729022	33665.715107	17-Mar-2025 17:04:08	33579.563039	83.907707	none	NaN	NaN
104	8	25	60	kitchen	sun_azmutvzbxypaceni.tif	33665.720765	33665.979007	33667.964963	17-Mar-2025 17:04:08	33579.563039	86.157727	none	NaN	NaN
104	8	26	55	kitchen	sun_avszsnwsbuqfgzbn.tif	33667.970756	33668.229009	33670.214976	17-Mar-2025 17:04:08	33579.563039	88.407717	5	33670.969653	1.000000
104	8	27	20	kitchen	sun_abdxkyyxwfskuaqb.tif	33677.245490	33677.503890	33679.489975	17-Mar-2025 17:04:08	33579.563039	97.682451	none	NaN	NaN
104	8	28	19	kitchen	sun_abdenxonkemggwsq.tif	33679.495554	33679.753881	33681.739439	17-Mar-2025 17:04:08	33579.563039	99.932515	none	NaN	NaN
104	8	29	14	kitchen	sun_aadbddgrdsjugojn.tif	33681.745651	33682.003802	33683.989469	17-Mar-2025 17:04:08	33579.563039	102.182612	none	NaN	NaN
104	8	30	22	kitchen	sun_abpwyqmlzafvklqo.tif	33683.995461	33684.253884	33686.239988	17-Mar-2025 17:04:08	33579.563039	104.432423	none	NaN	NaN
104	8	31	21	kitchen	sun_abftihopvusyfakt.tif	33693.270949	33693.529348	33695.515453	17-Mar-2025 17:04:08	33579.563039	113.707910	none	NaN	NaN
104	8	32	58	kitchen	sun_aymvwlarqodbwuoc.tif	33695.520860	33695.779372	33697.764889	17-Mar-2025 17:04:08	33579.563039	115.957822	none	NaN	NaN
104	8	33	52	kitchen	sun_auaiucuqpdausiva.tif	33697.770500	33698.029521	33700.014787	17-Mar-2025 17:04:08	33579.563039	118.207461	none	NaN	NaN
104	8	34	25	kitchen	sun_acgtpgfybqjmzeyw.tif	33700.020459	33700.278866	33702.264981	17-Mar-2025 17:04:08	33579.563039	120.457421	none	NaN	NaN
104	8	35	50	kitchen	sun_amjjdeyrggfqgmom.tif	33702.270915	33702.529307	33704.514850	17-Mar-2025 17:04:08	33579.563039	122.707877	none	NaN	NaN
104	8	36	24	kitchen	sun_acfmftudsenhrfhy.tif	33704.520801	33704.779289	33706.765589	17-Mar-2025 17:04:08	33579.563039	124.957763	none	NaN	NaN
104	8	37	23	kitchen	sun_abrcnpqqhmjwekyf.tif	33706.771062	33707.029173	33709.015196	17-Mar-2025 17:04:08	33579.563039	127.208024	none	NaN	NaN
104	8	38	44	kitchen	sun_ahywdevtimnqcsln.tif	33709.020470	33709.279246	33711.264639	17-Mar-2025 17:04:08	33579.563039	129.457431	none	NaN	NaN
104	8	39	56	kitchen	sun_awcpdzzznmweyyhv.tif	33718.295353	33718.554166	33720.539394	17-Mar-2025 17:04:08	33579.563039	138.732314	none	NaN	NaN
104	8	40	53	kitchen	sun_aunzlwrbjumxhwdj.tif	33727.570199	33727.828455	33729.814355	17-Mar-2025 17:04:08	33579.563039	148.007161	none	NaN	NaN
104	8	41	49	kitchen	sun_akcjzhbbjlbogpdi.tif	33729.820254	33730.078580	33732.064687	17-Mar-2025 17:04:08	33579.563039	150.257215	none	NaN	NaN
104	8	42	13	kitchen	labelme_rykdqxenmhulbdn.tif	33732.078503	33732.336761	33734.322584	17-Mar-2025 17:04:08	33579.563039	152.515464	none	NaN	NaN
104	8	43	11	kitchen	labelme_brsyyvweiuaazfr.tif	33734.337026	33734.595121	33736.581306	17-Mar-2025 17:04:08	33579.563039	154.773987	none	NaN	NaN
104	8	44	38	kitchen	sun_agubuxuukhzyzpdp.tif	33743.603310	33743.861686	33745.847681	17-Mar-2025 17:04:08	33579.563039	164.040271	none	NaN	NaN
104	8	45	45	kitchen	sun_aixorpehvfykdynp.tif	33745.853454	33746.111650	33748.097976	17-Mar-2025 17:04:08	33579.563039	166.290416	none	NaN	NaN
104	8	46	12	kitchen	labelme_kxvouciolcpqplr.tif	33748.103293	33748.361765	33750.347652	17-Mar-2025 17:04:08	33579.563039	168.540254	none	NaN	NaN
104	8	47	28	kitchen	sun_adgqasybjyktddhj.tif	33750.353803	33750.612145	33752.597631	17-Mar-2025 17:04:08	33579.563039	170.790764	none	NaN	NaN
104	8	48	32	kitchen	sun_aenotlpyftoioydp.tif	33752.603379	33752.861748	33754.847861	17-Mar-2025 17:04:08	33579.563039	173.040341	none	NaN	NaN
104	8	49	40	kitchen	sun_ahdycvpopffkzzsu.tif	33754.862215	33755.120443	33757.106518	17-Mar-2025 17:04:08	33579.563039	175.299177	5	33758.735355	1.000000
104	8	50	57	kitchen	sun_axyyrmzcupyhlivc.tif	33764.137067	33764.395473	33766.381311	17-Mar-2025 17:04:08	33579.563039	184.574028	none	NaN	NaN
104	8	51	59	kitchen	sun_aypmqwcualkenuoe.tif	33766.394973	33766.653293	33768.638764	17-Mar-2025 17:04:08	33579.563039	186.831935	none	NaN	NaN
104	8	52	25	kitchen	sun_acgtpgfybqjmzeyw.tif	33768.644949	33768.903661	33770.888897	17-Mar-2025 17:04:08	33579.563039	189.081910	none	NaN	NaN
104	8	53	26	kitchen	sun_acwjdupvyjsugpay.tif	33770.894876	33771.153632	33773.138957	17-Mar-2025 17:04:08	33579.563039	191.331838	none	NaN	NaN
104	8	54	16	kitchen	sun_aapllqyqlykszopd.tif	33773.145276	33773.403623	33775.389097	17-Mar-2025 17:04:08	33579.563039	193.582238	none	NaN	NaN
104	8	55	57	kitchen	sun_axyyrmzcupyhlivc.tif	33775.394800	33775.653221	33777.639042	17-Mar-2025 17:04:08	33579.563039	195.831761	none	NaN	NaN
104	8	56	14	kitchen	sun_aadbddgrdsjugojn.tif	33777.645237	33777.903582	33779.889365	17-Mar-2025 17:04:08	33579.563039	198.082199	none	NaN	NaN
104	8	57	51	kitchen	sun_aqeaevwwwjoqhzvl.tif	33779.894776	33780.153016	33782.138754	17-Mar-2025 17:04:08	33579.563039	200.331738	none	NaN	NaN
104	8	58	29	kitchen	sun_admlmbcdswaszruo.tif	33782.144655	33782.402973	33784.389158	17-Mar-2025 17:04:08	33579.563039	202.581616	none	NaN	NaN
104	8	59	11	kitchen	labelme_brsyyvweiuaazfr.tif	33784.394725	33784.653110	33786.639126	17-Mar-2025 17:04:08	33579.563039	204.831686	5	33787.814690	1.000000
104	8	60	42	kitchen	sun_ahpczsiumwwocjkv.tif	33793.661752	33793.919730	33795.906241	17-Mar-2025 17:04:08	33579.563039	214.098713	none	NaN	NaN
104	8	61	13	kitchen	labelme_rykdqxenmhulbdn.tif	33795.911231	33796.169620	33798.155240	17-Mar-2025 17:04:08	33579.563039	216.348192	none	NaN	NaN
104	8	62	43	kitchen	sun_ahspylgoovwmwvgk.tif	33798.161263	33798.419655	33800.405176	17-Mar-2025 17:04:08	33579.563039	218.598224	5	33801.671728	0.000000
104	8	63	56	kitchen	sun_awcpdzzznmweyyhv.tif	33807.427846	33807.686189	33809.672102	17-Mar-2025 17:04:08	33579.563039	227.864808	none	NaN	NaN
104	8	64	33	kitchen	sun_aeqdocilnnpuvuhx.tif	33809.677837	33809.936149	33811.921677	17-Mar-2025 17:04:08	33579.563039	230.114799	none	NaN	NaN
104	8	65	20	kitchen	sun_abdxkyyxwfskuaqb.tif	33811.928278	33812.186628	33814.172446	17-Mar-2025 17:04:08	33579.563039	232.365239	none	NaN	NaN
104	8	66	34	kitchen	sun_aexklacwqwezaorf.tif	33821.202835	33821.461546	33823.447272	17-Mar-2025 17:04:08	33579.563039	241.639796	none	NaN	NaN
104	8	67	28	kitchen	sun_adgqasybjyktddhj.tif	33823.453184	33823.711149	33825.697540	17-Mar-2025 17:04:08	33579.563039	243.890145	none	NaN	NaN
104	8	68	27	kitchen	sun_acxkpeoqbwcxfvip.tif	33825.702805	33825.961138	33827.947275	17-Mar-2025 17:04:08	33579.563039	246.139766	none	NaN	NaN
104	8	69	24	kitchen	sun_acfmftudsenhrfhy.tif	33827.953109	33828.211472	33830.197512	17-Mar-2025 17:04:08	33579.563039	248.390070	none	NaN	NaN
104	8	70	44	kitchen	sun_ahywdevtimnqcsln.tif	33830.202697	33830.461049	33832.446591	17-Mar-2025 17:04:08	33579.563039	250.639658	none	NaN	NaN
104	8	71	45	kitchen	sun_aixorpehvfykdynp.tif	33832.453075	33832.711450	33834.697558	17-Mar-2025 17:04:08	33579.563039	252.890037	none	NaN	NaN
104	8	72	23	kitchen	sun_abrcnpqqhmjwekyf.tif	33834.702663	33834.961064	33836.946902	17-Mar-2025 17:04:08	33579.563039	255.139624	none	NaN	NaN
104	8	73	38	kitchen	sun_agubuxuukhzyzpdp.tif	33836.952667	33837.211423	33839.196632	17-Mar-2025 17:04:08	33579.563039	257.389629	none	NaN	NaN
104	8	74	48	kitchen	sun_akchetnepxlcxhsu.tif	33839.203028	33839.461403	33841.447620	17-Mar-2025 17:04:08	33579.563039	259.639989	none	NaN	NaN
104	8	75	30	kitchen	sun_aegoxogugdkwpmpj.tif	33841.460879	33841.719209	33843.705253	17-Mar-2025 17:04:08	33579.563039	261.897840	none	NaN	NaN
104	8	76	15	kitchen	sun_aamedkxepzlwuxes.tif	33843.710940	33843.969266	33845.955226	17-Mar-2025 17:04:08	33579.563039	264.147902	none	NaN	NaN
104	8	77	53	kitchen	sun_aunzlwrbjumxhwdj.tif	33845.960853	33846.219280	33848.204736	17-Mar-2025 17:04:08	33579.563039	266.397814	none	NaN	NaN
104	8	78	36	kitchen	sun_aggjlwcdjsjcaemh.tif	33855.227408	33855.485826	33857.471956	17-Mar-2025 17:04:08	33579.563039	275.664370	none	NaN	NaN
104	8	79	21	kitchen	sun_abftihopvusyfakt.tif	33857.485942	33857.744179	33859.730141	17-Mar-2025 17:04:08	33579.563039	277.922903	none	NaN	NaN
104	8	80	31	kitchen	sun_aehawpgmrlhlvcow.tif	33859.735818	33859.993993	33861.979880	17-Mar-2025 17:04:08	33579.563039	280.172779	none	NaN	NaN
104	8	81	46	kitchen	sun_ajcbwwvdlsvjyzje.tif	33861.985771	33862.243930	33864.229795	17-Mar-2025 17:04:08	33579.563039	282.422732	none	NaN	NaN
104	8	82	52	kitchen	sun_auaiucuqpdausiva.tif	33864.235795	33864.494093	33866.479735	17-Mar-2025 17:04:08	33579.563039	284.672756	none	NaN	NaN
104	8	83	12	kitchen	labelme_kxvouciolcpqplr.tif	33866.485670	33866.743985	33868.730018	17-Mar-2025 17:04:08	33579.563039	286.922631	none	NaN	NaN
104	8	84	58	kitchen	sun_aymvwlarqodbwuoc.tif	33868.744102	33869.002420	33870.987881	17-Mar-2025 17:04:08	33579.563039	289.181063	none	NaN	NaN
104	8	85	22	kitchen	sun_abpwyqmlzafvklqo.tif	33870.994552	33871.252418	33873.238973	17-Mar-2025 17:04:08	33579.563039	291.431513	none	NaN	NaN
104	8	86	37	kitchen	sun_agorklincwxrdtga.tif	33873.244328	33873.502405	33875.488836	17-Mar-2025 17:04:08	33579.563039	293.681289	5	33877.193649	1.000000
104	8	87	40	kitchen	sun_ahdycvpopffkzzsu.tif	33882.519042	33882.777277	33884.762866	17-Mar-2025 17:04:08	33579.563039	302.956003	none	NaN	NaN
104	8	88	32	kitchen	sun_aenotlpyftoioydp.tif	33884.768976	33885.027678	33887.013336	17-Mar-2025 17:04:08	33579.563039	305.205938	none	NaN	NaN
104	8	89	50	kitchen	sun_amjjdeyrggfqgmom.tif	33887.019364	33887.277285	33889.263339	17-Mar-2025 17:04:08	33579.563039	307.456325	none	NaN	NaN
104	8	90	17	kitchen	sun_aarfiyshqohlwkmo.tif	33889.268857	33889.527689	33891.513012	17-Mar-2025 17:04:08	33579.563039	309.705818	none	NaN	NaN
104	8	91	54	kitchen	sun_auticobqsbwgoppi.tif	33891.518873	33891.777707	33893.763027	17-Mar-2025 17:04:08	33579.563039	311.955834	none	NaN	NaN
104	8	92	60	kitchen	sun_azmutvzbxypaceni.tif	33893.769354	33894.027693	33896.013516	17-Mar-2025 17:04:08	33579.563039	314.206316	none	NaN	NaN
104	8	93	55	kitchen	sun_avszsnwsbuqfgzbn.tif	33896.018803	33896.277204	33898.263231	17-Mar-2025 17:04:08	33579.563039	316.455764	none	NaN	NaN
104	8	94	47	kitchen	sun_ajkqhtgcbgpcwrwn.tif	33898.268819	33898.527682	33900.512944	17-Mar-2025 17:04:08	33579.563039	318.705780	none	NaN	NaN
104	8	95	35	kitchen	sun_afuyedyxivkhecmu.tif	33900.518834	33900.777156	33902.762936	17-Mar-2025 17:04:08	33579.563039	320.955795	none	NaN	NaN
104	8	96	39	kitchen	sun_agzzivivdpnawacl.tif	33902.768789	33903.018817	33905.012578	17-Mar-2025 17:04:08	33579.563039	323.205751	none	NaN	NaN
104	8	97	41	kitchen	sun_ahljzhgcdpomplvg.tif	33905.018765	33905.277118	33907.263121	17-Mar-2025 17:04:08	33579.563039	325.455726	none	NaN	NaN
104	8	98	49	kitchen	sun_akcjzhbbjlbogpdi.tif	33907.268741	33907.527102	33909.512931	17-Mar-2025 17:04:08	33579.563039	327.705702	none	NaN	NaN
104	8	99	18	kitchen	sun_aaxxjlsuzvqlgylf.tif	33909.518706	33909.777080	33911.763166	17-Mar-2025 17:04:08	33579.563039	329.955667	none	NaN	NaN
104	8	100	19	kitchen	sun_abdenxonkemggwsq.tif	33911.768679	33912.027060	33914.013176	17-Mar-2025 17:04:08	33579.563039	332.205641	none	NaN	NaN
